# Grace project file
#
@version 50125
@page size 792, 612
@page scroll 5%
@page inout 5%
@link page off
@map font 13 to "ZapfDingbats", "ZapfDingbats"
@map font 4 to "Helvetica", "Helvetica"
@map font 6 to "Helvetica-Bold", "Helvetica-Bold"
@map font 5 to "Helvetica-Oblique", "Helvetica-Oblique"
@map font 7 to "Helvetica-BoldOblique", "Helvetica-BoldOblique"
@map font 17 to "Nimbus-Sans-L-Regular-Condensed", "Nimbus-Sans-L-Regular-Condensed"
@map font 18 to "Nimbus-Sans-L-Bold-Condensed", "Nimbus-Sans-L-Bold-Condensed"
@map font 19 to "Nimbus-Sans-L-Regular-Condensed-Italic", "Nimbus-Sans-L-Regular-Condensed-Italic"
@map font 20 to "Nimbus-Sans-L-Bold-Condensed-Italic", "Nimbus-Sans-L-Bold-Condensed-Italic"
@map font 0 to "Times-Roman", "Times-Roman"
@map font 2 to "Times-Bold", "Times-Bold"
@map font 1 to "Times-Italic", "Times-Italic"
@map font 3 to "Times-BoldItalic", "Times-BoldItalic"
@map font 8 to "Courier", "Courier"
@map font 10 to "Courier-Bold", "Courier-Bold"
@map font 9 to "Courier-Oblique", "Courier-Oblique"
@map font 11 to "Courier-BoldOblique", "Courier-BoldOblique"
@map font 29 to "URW-Palladio-L-Roman", "URW-Palladio-L-Roman"
@map font 30 to "URW-Palladio-L-Bold", "URW-Palladio-L-Bold"
@map font 31 to "URW-Palladio-L-Italic", "URW-Palladio-L-Italic"
@map font 32 to "URW-Palladio-L-Bold-Italic", "URW-Palladio-L-Bold-Italic"
@map font 12 to "Symbol", "Symbol"
@map font 34 to "URW-Chancery-L-Medium-Italic", "URW-Chancery-L-Medium-Italic"
@map color 0 to (255, 255, 255), "white"
@map color 1 to (0, 0, 0), "black"
@map color 2 to (255, 0, 0), "red"
@map color 3 to (0, 255, 0), "green"
@map color 4 to (0, 0, 255), "blue"
@map color 5 to (255, 255, 0), "yellow"
@map color 6 to (188, 143, 143), "brown"
@map color 7 to (220, 220, 220), "grey"
@map color 8 to (148, 0, 211), "violet"
@map color 9 to (0, 255, 255), "cyan"
@map color 10 to (255, 0, 255), "magenta"
@map color 11 to (255, 165, 0), "orange"
@map color 12 to (114, 33, 188), "indigo"
@map color 13 to (103, 7, 72), "maroon"
@map color 14 to (64, 224, 208), "turquoise"
@map color 15 to (0, 139, 0), "green4"
@reference date 0
@date wrap off
@date wrap year 1950
@default linewidth 1.0
@default linestyle 1
@default color 1
@default pattern 1
@default font 0
@default char size 1.000000
@default symbol size 1.000000
@default sformat "%.8g"
@background color 0
@page background fill on
@timestamp off
@timestamp 0.03, 0.03
@timestamp color 1
@timestamp rot 0
@timestamp font 0
@timestamp char size 1.000000
@timestamp def "Mon May 27 16:48:38 2024"
@r0 off
@link r0 to g0
@r0 type above
@r0 linestyle 1
@r0 linewidth 1.0
@r0 color 1
@r0 line 0, 0, 0, 0
@r1 off
@link r1 to g0
@r1 type above
@r1 linestyle 1
@r1 linewidth 1.0
@r1 color 1
@r1 line 0, 0, 0, 0
@r2 off
@link r2 to g0
@r2 type above
@r2 linestyle 1
@r2 linewidth 1.0
@r2 color 1
@r2 line 0, 0, 0, 0
@r3 off
@link r3 to g0
@r3 type above
@r3 linestyle 1
@r3 linewidth 1.0
@r3 color 1
@r3 line 0, 0, 0, 0
@r4 off
@link r4 to g0
@r4 type above
@r4 linestyle 1
@r4 linewidth 1.0
@r4 color 1
@r4 line 0, 0, 0, 0
@g0 on
@g0 hidden false
@g0 type XY
@g0 stacked false
@g0 bar hgap 0.000000
@g0 fixedpoint off
@g0 fixedpoint type 0
@g0 fixedpoint xy 0.000000, 0.000000
@g0 fixedpoint format general general
@g0 fixedpoint prec 6, 6
@with g0
@    world 30, -0.001, 90, 4000
@    stack world 0, 0, 0, 0
@    znorm 1
@    view 0.150000, 0.150000, 1.150000, 0.850000
@    title "N-C Termini Constant Velocity SMD"
@    title font 0
@    title size 1.500000
@    title color 1
@    subtitle "Ubiquitin Without Water (2fs/step, 0.001A/step)"
@    subtitle font 0
@    subtitle size 1.000000
@    subtitle color 1
@    xaxes scale Normal
@    yaxes scale Normal
@    xaxes invert off
@    yaxes invert off
@    xaxis  on
@    xaxis  type zero false
@    xaxis  offset 0.000000 , 0.000000
@    xaxis  bar on
@    xaxis  bar color 1
@    xaxis  bar linestyle 1
@    xaxis  bar linewidth 1.0
@    xaxis  label "N-C Seperation (A)"
@    xaxis  label layout para
@    xaxis  label place auto
@    xaxis  label char size 1.000000
@    xaxis  label font 0
@    xaxis  label color 1
@    xaxis  label place normal
@    xaxis  tick on
@    xaxis  tick major 10
@    xaxis  tick minor ticks 1
@    xaxis  tick default 6
@    xaxis  tick place rounded true
@    xaxis  tick in
@    xaxis  tick major size 1.000000
@    xaxis  tick major color 1
@    xaxis  tick major linewidth 1.0
@    xaxis  tick major linestyle 1
@    xaxis  tick major grid off
@    xaxis  tick minor color 1
@    xaxis  tick minor linewidth 1.0
@    xaxis  tick minor linestyle 1
@    xaxis  tick minor grid off
@    xaxis  tick minor size 0.500000
@    xaxis  ticklabel on
@    xaxis  ticklabel format general
@    xaxis  ticklabel prec 5
@    xaxis  ticklabel formula ""
@    xaxis  ticklabel append ""
@    xaxis  ticklabel prepend ""
@    xaxis  ticklabel angle 0
@    xaxis  ticklabel skip 0
@    xaxis  ticklabel stagger 0
@    xaxis  ticklabel place normal
@    xaxis  ticklabel offset auto
@    xaxis  ticklabel offset 0.000000 , 0.010000
@    xaxis  ticklabel start type auto
@    xaxis  ticklabel start 0.000000
@    xaxis  ticklabel stop type auto
@    xaxis  ticklabel stop 0.000000
@    xaxis  ticklabel char size 1.000000
@    xaxis  ticklabel font 0
@    xaxis  ticklabel color 1
@    xaxis  tick place both
@    xaxis  tick spec type none
@    yaxis  on
@    yaxis  type zero false
@    yaxis  offset 0.000000 , 0.000000
@    yaxis  bar on
@    yaxis  bar color 1
@    yaxis  bar linestyle 1
@    yaxis  bar linewidth 1.0
@    yaxis  label "Force on C-Terminal (pN)"
@    yaxis  label layout para
@    yaxis  label place auto
@    yaxis  label char size 1.000000
@    yaxis  label font 0
@    yaxis  label color 1
@    yaxis  label place normal
@    yaxis  tick on
@    yaxis  tick major 1000
@    yaxis  tick minor ticks 1
@    yaxis  tick default 6
@    yaxis  tick place rounded true
@    yaxis  tick in
@    yaxis  tick major size 1.000000
@    yaxis  tick major color 1
@    yaxis  tick major linewidth 1.0
@    yaxis  tick major linestyle 1
@    yaxis  tick major grid off
@    yaxis  tick minor color 1
@    yaxis  tick minor linewidth 1.0
@    yaxis  tick minor linestyle 1
@    yaxis  tick minor grid off
@    yaxis  tick minor size 0.500000
@    yaxis  ticklabel on
@    yaxis  ticklabel format general
@    yaxis  ticklabel prec 5
@    yaxis  ticklabel formula ""
@    yaxis  ticklabel append ""
@    yaxis  ticklabel prepend ""
@    yaxis  ticklabel angle 0
@    yaxis  ticklabel skip 0
@    yaxis  ticklabel stagger 0
@    yaxis  ticklabel place normal
@    yaxis  ticklabel offset auto
@    yaxis  ticklabel offset 0.000000 , 0.010000
@    yaxis  ticklabel start type auto
@    yaxis  ticklabel start 0.000000
@    yaxis  ticklabel stop type auto
@    yaxis  ticklabel stop 0.000000
@    yaxis  ticklabel char size 1.000000
@    yaxis  ticklabel font 0
@    yaxis  ticklabel color 1
@    yaxis  tick place both
@    yaxis  tick spec type none
@    altxaxis  off
@    altyaxis  off
@    legend on
@    legend loctype view
@    legend 0.85, 0.8
@    legend box color 1
@    legend box pattern 1
@    legend box linewidth 1.0
@    legend box linestyle 1
@    legend box fill color 0
@    legend box fill pattern 1
@    legend font 0
@    legend char size 1.000000
@    legend color 1
@    legend length 4
@    legend vgap 1
@    legend hgap 1
@    legend invert false
@    frame type 0
@    frame linestyle 1
@    frame linewidth 1.0
@    frame color 1
@    frame pattern 1
@    frame background color 0
@    frame background pattern 0
@    s0 hidden false
@    s0 type xy
@    s0 symbol 0
@    s0 symbol size 1.000000
@    s0 symbol color 1
@    s0 symbol pattern 1
@    s0 symbol fill color 1
@    s0 symbol fill pattern 0
@    s0 symbol linewidth 1.0
@    s0 symbol linestyle 1
@    s0 symbol char 65
@    s0 symbol char font 0
@    s0 symbol skip 0
@    s0 line type 1
@    s0 line linestyle 1
@    s0 line linewidth 1.0
@    s0 line color 1
@    s0 line pattern 1
@    s0 baseline type 0
@    s0 baseline off
@    s0 dropline off
@    s0 fill type 0
@    s0 fill rule 0
@    s0 fill color 1
@    s0 fill pattern 1
@    s0 avalue off
@    s0 avalue type 2
@    s0 avalue char size 1.000000
@    s0 avalue font 0
@    s0 avalue color 1
@    s0 avalue rot 0
@    s0 avalue format general
@    s0 avalue prec 3
@    s0 avalue prepend ""
@    s0 avalue append ""
@    s0 avalue offset 0.000000 , 0.000000
@    s0 errorbar on
@    s0 errorbar place both
@    s0 errorbar color 1
@    s0 errorbar pattern 1
@    s0 errorbar size 1.000000
@    s0 errorbar linewidth 1.0
@    s0 errorbar linestyle 1
@    s0 errorbar riser linewidth 1.0
@    s0 errorbar riser linestyle 1
@    s0 errorbar riser clip off
@    s0 errorbar riser clip length 0.100000
@    s0 comment "Cols 4:2"
@    s0 legend  ""
@target G0.S0
@type xy
37.333362 -0.00090767279
37.243458 46.577199
37.263067 46.465808
37.181945 91.346896
37.157212 105.70658
37.176687 105.1438
37.066172 161.3362
37.175775 122.66907
37.077832 175.55815
37.140279 154.55573
37.052634 201.88509
37.024938 221.8585
37.046756 212.37214
36.942236 261.01553
37.017823 227.25084
36.796597 330.29826
36.756703 355.13572
36.686686 392.58297
36.728065 372.55118
36.799407 342.85706
36.785749 350.70416
36.909515 296.34358
36.96412 279.26712
36.964238 287.55537
37.034254 270.96133
36.983535 305.44716
37.131302 240.66105
37.141993 240.72204
37.203202 211.92745
37.280271 177.33509
37.137823 253.16233
37.171864 248.03271
37.092982 294.66816
37.13932 283.54441
37.148588 280.11263
37.191681 263.25096
37.27218 241.82836
37.390319 194.7311
37.541064 137.72342
37.638777 108.16786
37.806022 31.12025
37.837043 25.461892
37.888165 14.661569
37.837766 55.134978
37.784897 98.053825
37.79346 104.97878
37.802993 119.58037
37.841975 112.38884
37.808512 137.11336
37.769435 169.39616
37.674687 227.00025
37.573115 285.12073
37.514251 319.91634
37.399223 390.65349
37.34069 425.16405
37.243949 480.58497
37.067861 586.61975
37.020282 613.647
36.962542 655.91569
36.897597 691.06818
36.820059 730.93014
36.527985 883.12346
36.425888 935.38305
36.389029 967.74258
36.376834 987.76989
36.467763 956.52838
36.361179 1014.4366
36.31578 1047.2839
36.23193 1095.1939
36.192145 1115.579
36.225764 1111.2232
36.16102 1147.5966
36.24776 1112.9209
36.239251 1117.1531
36.250094 1109.8535
36.381785 1045.7894
36.362102 1039.5103
36.528093 951.81121
36.499029 967.02053
36.543248 938.48011
36.615934 896.4399
36.597617 903.41463
36.705446 849.63213
36.643327 883.50519
36.607804 911.40124
36.585716 935.62861
36.533103 969.61147
36.589156 951.80876
36.64958 932.9206
36.745362 897.57539
36.879399 850.12973
36.896892 855.67339
37.050258 791.12999
37.19815 729.49665
37.404586 636.8092
37.652375 523.97329
37.728308 492.67079
37.94925 393.0757
37.98968 380.04789
38.11421 326.87894
38.212659 283.17901
38.286712 251.25822
38.325787 236.15882
38.407352 203.1355
38.417515 212.18773
38.469476 200.08017
38.477569 209.44776
38.369534 274.9453
38.300754 315.95536
38.122306 417.98974
38.103158 441.23853
38.034513 494.67018
38.01614 518.87194
37.919346 576.19385
37.827782 633.76215
37.807735 643.41965
37.944086 576.83661
38.038415 534.08654
38.093616 502.38075
38.114127 494.44049
38.061676 525.75763
38.126942 512.36799
38.157226 511.94967
38.284853 451.47133
38.332682 443.51275
38.372915 435.26145
38.371254 441.24706
38.351689 457.32681
38.4586 416.91929
38.578177 361.5618
38.655202 324.33913
38.796499 262.34808
38.824605 256.99843
38.876403 236.36908
38.841631 259.36065
38.848104 264.50694
38.905929 230.33651
39.007098 185.04051
39.079208 157.91303
39.069478 167.0264
39.119597 158.91399
39.207295 132.73067
39.139207 171.59602
39.081377 201.62212
38.932266 254.40862
38.881181 266.63731
38.952895 229.54322
38.84755 273.70134
38.900442 259.36809
38.78705 311.68272
38.735562 336.67055
38.764201 335.479
38.742823 342.24335
38.785769 326.82386
38.753417 343.62957
38.747024 342.7422
38.709588 367.32176
38.731439 352.43383
38.788762 326.25197
38.724466 346.67937
38.602469 389.39404
38.511076 425.25797
38.488326 418.96627
38.403019 449.09058
38.291529 493.6583
38.138244 556.86418
38.122853 561.53905
38.1874 528.44285
38.320059 466.34689
38.50366 382.71894
38.461484 407.4122
38.470563 407.10481
38.516158 390.25591
38.543163 375.29008
38.62404 333.14477
38.652913 324.06784
38.637028 336.08028
38.77954 267.63106
38.84891 231.42758
38.936732 192.7059
39.202072 71.123455
39.163678 95.10595
39.323576 31.326037
39.320362 41.485768
39.328842 38.014059
39.36452 27.580369
39.215472 99.923979
39.273072 79.365994
39.202318 129.51914
39.229824 118.57172
39.159585 161.49012
39.08443 193.33749
39.10584 175.55209
39.058989 195.74052
39.038242 194.5181
39.044655 193.8424
38.914556 257.86373
38.812282 300.3303
38.698692 360.24053
38.624625 390.69457
38.535885 429.23687
38.459457 468.04379
38.552947 417.40309
38.445965 475.20148
38.555498 421.93525
38.547345 434.41179
38.615424 405.53149
38.796997 322.12341
38.759817 353.31704
39.000892 251.2583
38.859069 332.41865
38.89207 327.76115
38.937285 321.96453
38.875732 354.96719
38.985775 305.76022
39.101683 261.68528
39.163412 239.0526
39.315201 175.52868
39.270251 210.52228
39.348121 175.11304
39.362614 170.44461
39.448532 130.36488
39.406487 150.62673
39.308796 200.32673
39.291186 206.94138
39.061449 316.63105
39.145377 279.83772
39.034822 336.0008
38.996316 351.68098
38.880425 409.44247
38.774957 458.73429
38.691039 496.51063
38.565827 553.03531
38.50491 581.65051
38.402999 632.21116
38.384182 638.59192
38.374955 642.71553
38.398662 630.65653
38.447784 608.54971
38.431064 620.65466
38.399669 640.19572
38.422846 637.03036
38.519645 597.58678
38.540155 600.92453
38.700036 532.08554
38.600452 592.18133
38.840654 490.06851
39.00049 422.54385
39.061661 396.86432
39.296828 293.73951
39.192907 352.7708
39.349851 284.24355
39.34108 299.4384
39.319652 308.95369
39.456685 251.96334
39.348673 311.21721
39.330346 321.62852
39.179955 394.56285
39.189828 388.60164
39.222637 377.42121
39.318247 333.44911
39.387672 307.38942
39.441473 289.13543
39.514999 260.26772
39.620177 215.26878
39.664507 197.39396
39.672053 209.06897
39.615963 245.68151
39.584711 268.34853
39.516232 313.78969
39.513353 317.27415
39.488332 337.6823
39.494774 334.8959
39.565765 298.52176
39.601259 290.72189
39.728655 232.43375
39.691172 250.09187
39.701414 242.87548
39.668736 255.66043
39.637916 271.89646
39.734689 228.72431
39.704996 250.91493
39.724029 248.55966
39.607142 307.97594
39.513774 354.31541
39.539748 345.7641
39.461878 384.56587
39.490145 378.21927
39.481624 394.71899
39.524617 380.75614
39.586116 355.07698
39.586381 360.48038
39.601687 359.18837
39.617276 364.88941
39.616552 368.50442
39.494005 427.33056
39.49272 427.91354
39.334996 499.59024
39.212585 560.95402
39.197035 571.23683
39.175353 585.0517
39.201167 579.05595
39.146255 610.35966
39.031177 667.66653
39.053816 664.2495
39.03691 675.94263
39.122069 635.90624
39.199707 606.81904
39.255036 587.81583
39.325671 559.88806
39.307442 580.80857
39.387945 554.4554
39.386547 571.31
39.389302 580.55408
39.40212 584.74149
39.336251 625.08031
39.387998 600.49074
39.378203 614.01859
39.607317 514.73005
39.555987 541.82151
39.492961 578.06562
39.618518 524.75022
39.515384 574.32251
39.716947 481.87574
39.769975 463.20143
39.706284 499.96586
39.678755 519.03699
39.516276 601.3648
39.502346 622.69104
39.423557 671.30962
39.26105 758.65094
39.170807 811.11179
39.067795 866.56602
39.12204 844.26364
39.091541 856.73897
39.081653 863.7316
39.099353 861.0248
39.047975 889.91362
39.061965 893.02897
39.150647 858.28994
39.281324 803.93177
39.493915 712.98435
39.656999 645.71219
39.720058 627.70867
39.804776 596.57772
39.839854 593.32573
39.878435 590.19208
39.931862 574.48513
39.902095 595.57031
39.894964 602.35436
39.835713 641.67519
39.84379 645.08285
39.815397 669.12603
39.782087 699.82846
39.812892 691.08281
39.721815 742.71635
39.764647 729.45396
39.744656 756.79387
39.739506 785.23548
39.832548 759.40591
39.689688 847.62419
39.83085 804.54524
39.856681 800.22243
39.789954 845.41582
39.791949 858.00739
39.663875 926.40406
39.589448 973.65052
39.46034 1040.3925
39.544562 1003.4451
39.702589 917.16485
39.651721 940.07135
39.790779 879.23118
39.805726 873.45985
39.770421 901.24043
39.718334 940.68932
39.607007 994.92796
39.659771 974.85758
39.5321 1037.38
39.415914 1085.494
39.462966 1053.8232
39.458696 1050.4054
39.593022 983.84184
39.597087 987.91298
39.636966 983.00597
39.58325 1027.6115
39.56776 1043.9587
39.498413 1075.1901
39.394189 1127.842
39.434138 1115.3846
39.438245 1123.0171
39.632158 1048.1832
39.564037 1091.0715
39.639104 1046.6924
39.738954 989.84651
39.725451 1000.2883
39.795657 966.06719
39.724263 1003.9972
39.744993 1004.2318
39.844928 977.59039
39.670806 1064.1455
39.740092 1024.6388
39.751395 1016.7396
39.738939 1003.348
39.772166 962.80872
39.643151 1020.1587
39.688085 988.91596
39.655747 1012.1477
39.708739 989.95264
39.757784 969.29394
39.842365 925.00838
39.710168 982.45386
39.55789 1050.4383
39.470944 1085.7526
39.400408 1129.3926
39.517532 1084.8387
39.630507 1046.2452
39.604275 1076.1926
39.714827 1036.545
39.786703 1001.3425
39.778768 1008.4643
39.943435 939.95508
39.901331 971.30759
39.882336 978.55632
39.827649 1012.5794
39.750143 1056.38
39.68948 1100.9359
39.653761 1130.4744
39.634901 1145.9488
39.667741 1126.0077
39.766243 1063.6666
39.693422 1098.9788
39.827005 1036.9547
39.824152 1048.4361
39.77298 1073.8416
39.634167 1128.5523
39.587648 1142.5919
39.454787 1199.8228
39.620263 1125.5015
39.553309 1168.9411
39.482551 1203.6114
39.525044 1189.5782
39.512184 1194.9467
39.697402 1109.8129
39.83598 1053.4179
39.803937 1071.7987
39.737928 1108.553
39.703366 1117.8511
39.597409 1178.0225
39.772731 1105.8682
39.810514 1105.0799
39.830615 1099.1975
39.804594 1119.3606
39.782503 1126.141
39.778049 1128.7328
39.87283 1092.0492
40.032965 1028.314
40.183253 973.01141
40.32251 918.83819
40.334004 918.87196
40.405717 884.78217
40.257373 959.32949
40.254105 951.50953
40.259229 957.9387
40.425674 889.04443
40.514283 855.69169
40.555488 842.26714
40.583014 825.33363
40.449772 885.48102
40.364399 920.67338
40.370967 926.27598
40.51531 865.23782
40.543986 856.23443
40.556287 845.65162
40.374378 926.14387
40.270721 970.15176
40.215973 997.81933
40.227507 997.82788
40.344652 942.61432
40.410402 919.10083
40.569825 847.68883
40.50899 870.14362
40.370577 929.35193
40.354865 937.63938
40.264756 980.80006
40.39598 927.6847
40.585703 847.91526
40.600945 840.52345
40.584009 841.00886
40.538409 866.0615
40.574592 852.19011
40.692718 805.08066
40.695764 808.96441
40.702044 805.61447
40.625564 845.23491
40.619688 848.09335
40.626406 846.20046
40.784039 775.14455
40.862227 744.11325
40.888659 739.28385
40.82566 774.17536
40.744436 815.56876
40.771784 807.91105
40.860073 774.403
40.885871 770.20949
40.907587 765.90621
41.028647 708.77291
41.065695 696.54438
41.183396 646.41105
41.202201 646.78385
41.296686 615.71227
41.298264 619.47039
41.246592 651.33148
41.269162 648.15024
41.214695 686.91493
41.254567 676.774
41.25159 683.19706
41.264802 680.32032
41.338758 651.7498
41.240242 701.74414
41.246981 699.89881
41.248515 700.01303
41.282464 683.87436
41.420513 623.03212
41.346487 667.36327
41.354315 664.78331
41.239819 726.1105
41.241988 734.20811
41.203723 754.7729
41.165332 789.38469
41.259044 758.30375
41.157098 818.3544
41.141893 824.76931
41.114286 842.36146
41.071111 856.03972
41.136263 828.4518
41.355459 736.1697
41.493857 669.98018
41.609743 617.14492
41.623698 601.82178
41.539704 641.85892
41.624063 601.08265
41.577463 627.44032
41.740376 558.48385
41.739899 556.23118
41.778615 537.16738
41.879549 487.78207
41.803673 522.41377
41.728272 557.85169
41.649692 598.9926
41.545709 651.26317
41.48908 672.10279
41.429466 700.7237
41.374471 731.4802
41.389492 722.76017
41.236593 805.18555
41.38754 736.40268
41.294737 791.1178
41.28115 797.40302
41.22934 833.73977
41.008478 948.5808
40.961575 975.52062
40.823946 1041.2357
40.825739 1043.9185
40.782372 1075.569
40.732828 1104.3586
40.896936 1028.3522
41.031072 964.42718
41.100389 927.25701
41.235012 869.76067
41.192812 896.88872
41.24377 869.07401
41.201819 887.6345
41.261945 855.7462
41.317507 834.75534
41.379937 810.87355
41.422114 796.40859
41.543291 748.46006
41.539169 745.91343
41.701895 669.29801
41.701475 671.65557
41.622343 711.90413
41.723104 672.61868
41.638733 710.98654
41.829201 624.13147
41.803778 638.76391
41.765527 661.28334
41.71744 690.16606
41.47536 809.34698
41.461651 823.2952
41.589799 764.71462
41.634665 749.13858
41.787389 684.94274
41.610544 770.37821
41.773523 701.25302
41.77894 701.5075
41.824472 682.32948
41.918234 645.48979
41.721755 739.04765
41.830166 691.33653
41.747081 731.55582
41.853512 681.5729
41.885512 674.51157
41.87389 682.84416
41.842072 702.26774
41.83001 708.15578
41.858272 697.33352
41.840866 710.43893
41.835334 720.20461
41.898902 697.63107
41.908682 696.40411
42.116675 600.88549
42.090877 615.89967
42.102274 614.44872
42.126638 612.00212
42.178349 591.4028
42.281031 545.57557
42.246364 564.93413
42.164016 605.76202
42.123237 632.75917
42.112871 641.00231
42.121224 638.25084
42.130015 638.88139
42.195247 608.38343
42.092685 662.38672
42.143184 642.19353
42.055947 687.11817
42.028713 701.80307
42.126011 662.21923
42.087855 683.91743
42.162661 650.15735
42.189595 641.68982
42.266876 605.84946
42.356159 567.72303
42.345668 573.45127
42.443742 529.21125
42.53009 494.51611
42.598261 463.25792
42.798886 372.90446
42.766323 389.90667
42.925496 316.04079
42.851129 355.94943
42.959269 307.11572
42.900588 338.40712
42.809623 383.92516
42.819786 382.39044
42.722714 432.64087
42.894126 354.51603
42.873787 369.12644
42.805477 405.38962
42.704736 457.71264
42.596712 513.32949
42.615347 509.39046
42.660796 493.2229
42.57351 541.22349
42.626315 522.6065
42.522461 578.27252
42.587997 552.30108
42.624919 539.38182
42.66117 527.0541
42.543789 589.42573
42.494559 620.12047
42.550797 600.47
42.621907 572.86828
42.717045 533.16978
42.56827 612.65462
42.550521 629.7487
42.452509 685.39811
42.446024 694.55801
42.522471 662.42004
42.438501 710.9764
42.470316 706.07587
42.404409 750.97209
42.304216 809.54411
42.37679 780.39838
42.376628 786.77707
42.464181 749.63335
42.400255 790.11039
42.314573 840.76938
42.296434 856.86461
42.279602 868.37109
42.411789 807.76551
42.379894 826.82482
42.318903 865.0614
42.35467 860.45561
42.325765 890.61043
42.404972 865.39272
42.348098 901.39205
42.33359 916.97625
42.350766 914.04339
42.38613 903.04427
42.337934 931.75218
42.344251 930.35246
42.343342 939.23632
42.430021 899.59636
42.476688 882.19734
42.519148 868.22717
42.553269 852.46289
42.516022 879.08441
42.482185 905.44818
42.497254 903.1154
42.520938 894.39499
42.701517 809.13801
42.743553 786.45918
42.7885 770.6185
42.778075 785.86642
42.65724 855.60227
42.735532 821.93855
42.903521 744.21609
42.97673 715.74153
43.041101 698.33969
43.055234 703.04017
42.991589 738.70452
43.034056 722.4508
43.01974 724.41726
43.04295 714.85931
43.038853 721.96495
43.099021 698.52265
43.059744 729.15923
43.121372 705.15385
43.04187 746.05897
43.016488 761.0813
43.047266 747.24934
43.01055 771.99261
42.986217 797.00095
43.019367 790.82589
43.001579 803.30082
43.159316 728.33068
43.16062 724.83802
43.184559 715.42767
43.131069 748.321
43.055397 791.51256
43.142004 754.3818
43.275731 691.15967
43.32579 669.51551
43.276346 702.59869
43.242764 732.59455
43.226831 750.31918
43.196349 769.55819
43.295907 725.71209
43.262044 742.14434
43.219111 770.93519
43.191359 788.10201
43.035673 863.13314
43.184082 795.45525
43.147144 808.58832
43.166013 799.26214
43.143218 817.12989
42.96537 905.90188
43.042338 877.96274
43.09273 854.62087
43.093691 851.86405
43.097281 855.23594
42.955055 929.08929
42.897296 966.11354
42.819446 1012.5119
42.907479 971.1966
43.007763 923.45131
43.051552 904.53509
43.092682 889.59815
43.138374 879.73083
43.248199 835.68673
43.338675 800.12606
43.379427 784.68337
43.404255 774.63111
43.28961 831.71316
43.283175 838.44354
43.260147 854.28871
43.270295 849.49549
43.279486 850.39358
43.240483 871.88083
43.174709 909.37379
43.142328 936.47546
42.967546 1025.1852
42.988142 1023.3289
42.9722 1042.7989
42.993135 1040.034
42.961914 1061.7468
42.870277 1113.2693
42.789041 1161.7745
42.761035 1186.3161
42.745076 1204.2704
42.830635 1171.2511
42.96985 1108.9417
43.049322 1075.6312
43.186882 1021.1828
43.277186 986.72384
43.402447 937.31904
43.401189 945.94962
43.398109 949.49024
43.456056 929.28567
43.644449 848.76005
43.705395 831.67168
43.667249 860.37921
43.698274 855.39696
43.71231 859.42016
43.785304 831.74243
43.879667 794.59948
43.799537 841.6471
43.801431 848.88568
43.740041 888.99321
43.738911 899.09548
43.840461 860.75034
43.88152 850.74077
43.88834 852.47104
43.894599 855.37782
43.813564 900.45823
43.803826 915.03983
43.846703 902.40235
43.897631 885.1741
43.839083 918.01293
43.745273 972.09993
43.680587 1009.6312
43.745881 981.52979
43.805342 954.75297
43.833756 950.12079
43.737398 1001.5311
43.644493 1051.6112
43.653228 1049.9529
43.741852 1007.931
43.808764 978.69575
43.799833 985.67535
43.807604 981.65908
43.814495 978.41931
43.718547 1023.4229
43.839598 955.62626
43.873464 937.17471
43.832725 961.47321
43.943396 909.55554
43.871976 940.08233
43.942102 907.29351
43.910007 923.01509
43.860387 949.86425
43.819564 973.75947
43.712738 1027.8831
43.70521 1033.0336
43.59696 1084.9952
43.553204 1111.4216
43.46784 1153.8159
43.333563 1226.3228
43.276423 1260.0563
43.19528 1297.9527
43.235082 1275.9297
43.223239 1285.584
43.222076 1293.1867
43.372943 1222.4854
43.261355 1281.3067
43.294967 1262.3876
43.243671 1284.1564
43.208202 1311.2264
43.248013 1300.6912
43.247106 1308.7087
43.440461 1221.0295
43.432995 1224.0372
43.544901 1178.0827
43.553418 1185.3432
43.548189 1203.6663
43.614012 1185.3371
43.741148 1126.3122
43.957765 1027.5135
44.125315 952.29988
44.119247 951.91526
44.098291 967.59255
44.053248 996.05573
44.238158 913.83932
44.330086 878.67586
44.426856 842.82247
44.559205 789.61722
44.536934 808.13952
44.617276 784.47318
44.662219 776.28126
44.894954 682.2014
44.90565 699.32559
44.957394 692.3671
44.94925 705.12253
44.933155 725.03196
44.90542 747.18957
44.874821 776.55693
44.958373 748.58402
44.993214 739.63591
45.034197 730.29875
45.179097 670.69246
45.201282 668.27553
45.229686 666.57497
45.425911 589.35216
45.351477 627.12363
45.520686 558.80664
45.510919 568.55769
45.645838 524.77622
45.727976 500.03501
45.818061 465.51995
45.927136 420.46639
45.856987 458.22367
45.883575 452.59704
45.885614 456.72064
45.83451 484.35528
45.971961 416.49648
45.960863 421.35431
45.981551 416.59932
45.875939 471.98937
45.849444 490.29249
45.806132 509.1831
45.748973 542.57564
45.814604 514.23406
45.81588 525.1112
45.810792 531.55538
45.897936 494.58808
45.777894 553.38737
45.797412 552.10798
45.741289 587.05964
45.806594 559.6425
45.8084 565.86431
45.756378 598.12502
45.824817 562.86033
45.68409 635.80057
45.67287 646.98061
45.650944 660.32023
45.759987 616.83434
45.790285 609.19856
45.815764 605.8596
45.796621 615.23824
45.677974 674.55832
45.590216 727.10738
45.64671 708.94613
45.593838 747.61886
45.632851 737.99147
45.533599 794.30391
45.542484 802.12424
45.512106 824.78273
45.466309 858.71396
45.447269 874.78761
45.394447 910.5788
45.383164 922.57641
45.445916 893.69896
45.40046 928.21683
45.399557 938.75618
45.482767 897.04446
45.595612 851.31155
45.607692 849.86914
45.721165 804.72005
45.690539 822.57316
45.680392 835.03261
45.847554 762.35012
45.84015 765.64235
45.939866 738.42563
45.849059 783.23974
45.873026 785.60257
45.931517 764.1609
45.929509 769.72203
45.93865 775.37427
45.96063 767.85072
46.010111 762.88148
46.051545 750.8729
46.094295 735.94449
46.072874 751.82503
46.150224 713.05547
46.229921 684.37317
46.293121 653.05238
46.307212 642.24475
46.391821 605.94254
46.364842 629.72675
46.497745 582.78074
46.655989 505.44045
46.624574 524.79452
46.792841 450.62326
46.784283 456.12302
46.805755 471.17179
46.804643 472.42232
46.783486 487.12102
46.927801 424.69693
46.975447 402.29538
47.003313 402.62022
46.942461 441.70646
46.82973 505.71323
46.923015 464.5849
46.983545 435.0521
47.138631 364.54625
47.231255 310.5998
47.19977 322.67327
47.23098 308.26332
47.157464 337.85818
47.224347 311.03497
47.342909 242.49544
47.323739 244.78915
47.467102 173.11493
47.350461 239.01859
47.43815 211.27097
47.337925 255.85823
47.401482 228.07527
47.368924 239.4193
47.378141 249.0462
47.341204 275.34284
47.214556 335.52897
47.157053 365.33089
47.068723 396.02319
47.157674 366.30498
47.151096 371.5478
47.181644 365.78785
47.21742 347.31419
47.16057 364.22346
47.170912 371.44741
47.156237 376.29222
47.128027 396.85173
47.159678 387.77393
47.045541 438.44839
47.061294 431.29033
46.964524 470.28021
46.92963 501.75957
46.950265 508.43346
46.866277 557.94355
46.915358 541.62435
46.844617 584.64476
46.832867 607.40287
46.860283 606.98898
46.795509 654.57652
46.850095 633.71701
46.771879 680.96225
46.824249 662.28304
46.750643 697.04198
46.722135 707.80006
46.69353 704.21712
46.605317 743.70628
46.717302 693.56601
46.657847 730.38253
46.667379 734.85736
46.624253 747.71606
46.519338 794.76331
46.641163 744.45105
46.614833 764.08162
46.761886 708.64362
46.82094 678.79695
46.700024 744.79053
46.823289 685.0196
46.759862 723.45697
46.900244 667.0006
46.944105 653.56545
46.886687 679.08117
46.957268 644.54864
46.986191 641.36498
47.128957 590.12499
47.090179 624.21357
47.041785 657.67687
47.057937 643.46966
47.147018 596.13661
47.317857 513.53518
47.311694 523.2976
47.276945 552.121
47.180052 601.12374
47.134866 623.61961
47.227277 581.61393
47.258055 580.2329
47.299067 573.81676
47.3056 585.62455
47.332689 582.0209
47.31347 598.36937
47.339757 596.60417
47.282969 626.73375
47.26237 634.35732
47.323837 600.71069
47.452015 540.38923
47.505403 519.52202
47.448788 559.36972
47.39646 604.68547
47.386769 614.97559
47.431208 601.984
47.623748 510.16694
47.614231 521.49862
47.709974 485.62128
47.721082 487.09662
47.681862 513.34573
47.684447 506.39785
47.528743 574.59613
47.6586 514.89549
47.671928 521.04493
47.691075 521.4714
47.665151 545.78088
47.581851 586.81895
47.587875 578.36767
47.582627 578.57336
47.670167 534.30611
47.659651 546.5338
47.659295 553.27516
47.552073 603.97768
47.609456 572.25931
47.697605 523.22889
47.764235 475.62222
47.694808 497.39406
47.6444 513.99337
47.551719 549.46542
47.576865 532.94862
47.564665 540.95597
47.537505 554.70133
47.480772 578.50834
47.488851 569.35452
47.457735 575.92228
47.404726 593.0371
47.406286 593.42209
47.345038 631.033
47.31543 653.92607
47.251605 690.92509
47.142865 741.60321
47.206087 708.73793
47.18901 709.78482
47.214273 688.83504
47.345608 618.98293
47.336124 621.33928
47.266158 657.10973
47.163622 711.74235
47.143425 725.6068
47.183109 707.9651
47.067834 768.08446
47.044917 781.64646
47.095759 760.66946
47.048799 787.6654
46.988598 817.41691
46.963618 831.57128
47.016176 808.09401
47.062574 781.78552
47.005597 804.23382
47.0515 778.87424
47.117466 748.29577
47.218395 705.55143
47.235849 705.73966
47.169048 741.48489
47.206692 722.5191
47.215834 718.38613
47.380668 640.12459
47.407073 636.0315
47.474099 612.88921
47.44771 630.95127
47.38058 666.1302
47.454693 628.15421
47.468746 619.96678
47.480513 617.66571
47.639342 545.53166
47.491902 624.67542
47.57989 589.7701
47.540629 610.54057
47.568893 593.86565
47.7075 519.34232
47.540369 595.48371
47.651903 540.09084
47.682157 532.54128
47.723547 519.67854
47.818274 480.51543
47.802257 490.2315
47.907725 437.24949
47.906443 439.48347
47.918049 436.30347
47.91421 440.06158
47.868982 465.86553
47.816473 491.92602
47.775495 514.08363
47.8842 464.85241
47.933605 444.08842
47.913627 460.29015
48.015983 417.51043
47.921546 470.80792
48.017079 434.18818
48.028486 435.38342
48.018282 442.35654
48.185605 367.92753
48.118909 402.30269
48.225274 352.57015
48.246514 346.06977
48.371802 287.01511
48.380029 287.9024
48.513275 227.55887
48.559345 208.39423
48.659115 166.2747
48.773184 120.32606
48.633394 195.28699
48.618368 213.3059
48.584924 233.51621
48.537553 261.28309
48.567304 254.27925
48.40969 337.68604
48.32225 391.45643
48.348358 386.78277
48.31326 408.90217
48.319241 411.67523
48.389642 380.13045
48.480455 343.19166
48.517977 332.9015
48.525111 336.95152
48.410302 401.47781
48.466046 380.06702
48.57197 336.31857
48.603185 330.3594
48.642316 320.02879
48.615802 343.06221
48.634373 341.52343
48.754067 289.1639
48.691781 323.61198
48.775087 289.01973
48.738803 312.80134
48.683962 346.13679
48.651562 368.56335
48.674072 365.53947
48.702358 359.51284
48.7065 361.54311
48.598242 415.8525
48.504016 463.36808
48.516375 460.24746
48.545895 454.45823
48.553009 457.66545
48.611245 434.60489
48.687478 401.34814
48.590862 446.85903
48.553276 466.33302
48.493843 497.65466
48.43548 525.75763
48.442931 526.30242
48.487673 509.22213
48.427374 542.61673
48.381928 572.74594
48.450326 545.06981
48.534509 513.50796
48.709815 440.12744
48.802703 400.61717
48.890218 372.59348
48.852369 395.29261
48.802594 423.99808
48.895178 384.98379
48.968762 347.89813
49.024094 325.26553
49.079324 302.46757
49.071516 311.68397
49.032193 338.47692
49.083739 314.28447
48.955233 376.05847
49.000432 355.73804
49.01948 352.24789
49.090866 323.29209
49.120859 317.4756
49.130361 318.19906
49.091643 341.20816
48.931588 426.10155
48.941323 424.80833
49.077536 368.42392
49.180777 328.07884
49.142466 356.91415
49.135621 373.98833
48.950756 474.25788
49.013578 450.17362
49.188343 372.18043
49.202394 360.79508
49.221383 350.64675
49.150921 387.75564
49.050027 436.59209
49.081396 425.30798
49.048177 443.36722
49.194894 375.26651
49.207927 378.88641
49.105583 431.43342
49.146372 420.87662
49.134294 437.23973
49.13412 439.95263
49.246759 398.2295
49.249908 406.56452
49.135305 473.42118
49.125028 495.03567
49.106398 509.55674
49.105339 520.08672
49.235361 472.46135
49.173919 515.19716
49.139482 546.68384
49.090469 577.10533
49.09184 583.02059
49.286646 492.98016
49.394233 440.86694
49.410253 430.18937
49.270944 491.17836
49.100905 571.38197
48.959817 637.10316
48.976378 634.19997
48.92954 664.13934
48.83816 711.79031
48.876066 698.27222
48.745372 766.70548
48.734079 783.06165
48.743992 794.8243
48.70572 824.36237
48.789458 806.09254
48.708819 853.94273
48.635517 889.98475
48.555015 931.87087
48.450143 973.66394
48.348168 1020.4059
48.464854 963.90273
48.45695 968.28287
48.445127 980.11339
48.401414 1003.8691
48.527266 945.87971
48.592891 918.27068
48.6348 905.88442
48.538624 964.56013
48.665101 917.27343
48.851672 840.67996
48.843603 850.37734
48.903784 825.4938
48.924367 827.78511
48.959028 817.595
48.86555 862.73593
48.890844 855.74902
48.923787 851.01316
48.947469 848.43199
49.033355 813.2539
49.020185 816.42416
49.183697 744.60192
49.182829 757.12763
49.107157 806.63773
49.075541 835.93961
49.190131 778.936
49.312677 713.40471
49.31364 714.0987
49.241153 758.78268
49.212568 787.17511
49.265403 778.10218
49.278548 778.43192
49.340392 754.08462
49.522697 672.84068
49.441344 709.75189
49.441759 709.30954
49.445333 708.09479
49.399786 722.62234
49.516305 671.76086
49.51861 669.68827
49.481936 680.30448
49.532994 649.9374
49.413859 704.19235
49.420171 707.49107
49.530737 666.34199
49.464035 703.71708
49.413961 729.73611
49.47094 700.34519
49.499153 685.91561
49.585876 657.50448
49.668561 628.91895
49.659479 639.5843
49.846139 553.26624
49.957386 494.38521
49.969672 485.80829
50.059195 445.69795
49.973385 488.20244
49.923936 517.08639
50.004453 482.02494
49.98283 485.50014
50.048166 451.16234
50.08004 438.55977
50.029056 468.70079
50.083877 453.24628
50.03324 482.33759
50.0389 486.26807
50.121247 456.17058
50.095771 472.15115
49.994351 526.93541
50.084768 490.13148
50.016128 525.74625
50.05566 509.48394
50.107226 485.7855
49.96592 550.24885
49.998919 537.93454
50.025229 531.75825
49.939875 577.08704
49.903704 601.25219
49.815545 648.28725
49.829221 644.54864
49.951127 589.66397
49.955041 590.62426
49.984936 582.3205
49.986228 591.51212
49.881332 647.24607
49.850164 666.49447
49.840112 673.60824
49.803365 692.12483
49.930009 635.32325
49.827919 685.34605
49.749282 723.2529
49.702986 751.03673
49.660357 769.30776
49.63243 783.28244
49.647162 778.08634
49.654823 774.38676
49.71553 746.53667
49.696806 757.28697
49.651269 779.78978
49.614436 805.13188
49.600286 814.77072
49.521664 851.55224
49.497193 870.52458
49.477133 886.16403
49.325358 963.64704
49.28079 993.7315
49.315654 977.55294
49.211317 1030.7862
49.327383 979.39218
49.255534 1019.692
49.247169 1030.0284
49.30658 1007.9265
49.401976 964.27067
49.542811 899.10279
49.531681 900.34845
49.544195 894.32219
49.639724 849.87562
49.563287 887.56254
49.584564 880.722
49.608116 879.08404
49.574004 899.86182
49.706805 841.13936
49.842844 784.49758
49.886463 768.62841
49.946292 751.49774
50.003365 734.32156
49.972626 762.33669
50.010479 755.27378
49.993297 777.73062
50.035741 768.84675
50.180943 708.19603
50.234836 684.42197
50.258742 675.69623
50.306395 654.08624
50.351528 636.19533
50.473875 583.64627
50.456297 595.71013
50.451692 605.54536
50.54103 569.46186
50.607433 545.54348
50.700659 507.34022
50.602497 560.24828
50.604289 562.76114
50.651717 550.97248
50.699899 532.90555
50.591947 590.97267
50.582639 607.53377
50.573908 621.97593
50.675438 583.24175
50.7099 572.16661
50.544527 658.83552
50.686774 597.51116
50.643321 631.58587
50.740154 585.20821
50.822485 555.79373
50.85873 546.69277
50.90358 535.11758
50.876031 557.63335
50.915504 540.78848
50.94053 535.25824
50.937414 544.61735
50.940389 548.69947
50.909355 569.62974
51.037222 510.51008
50.954022 558.95949
50.889996 596.42852
50.893213 611.56833
50.789754 669.00489
50.916452 620.87948
50.891418 643.05134
50.734191 720.60829
50.682324 756.70398
50.734003 734.9948
50.812434 701.11641
50.907225 662.83309
50.84153 696.3354
50.819076 722.11864
50.7786 749.94067
50.803037 747.28593
50.851505 733.47754
50.939985 694.80968
50.922966 714.19423
50.973246 689.62942
50.92269 720.88191
50.958505 712.41355
51.079578 666.7449
51.072297 681.0269
51.108009 668.76054
51.122269 675.89299
51.072247 699.7866
51.132232 673.91884
51.24001 629.95402
51.186002 653.28941
51.139033 685.77128
51.110511 700.63344
51.053094 726.79717
51.087658 716.20217
51.011681 755.94619
50.94061 801.53639
50.926064 813.76774
50.856051 855.79537
50.876047 847.76157
50.84979 869.99526
50.823254 893.08875
50.90613 858.17894
50.917962 866.54772
50.962486 844.37343
50.888225 891.90814
50.922458 872.76869
50.955289 860.89306
51.041345 825.74339
51.038071 821.29213
50.986451 859.19777
51.033038 841.60525
50.925982 904.55704
50.961142 884.95902
50.951165 893.6083
50.992962 876.23207
51.039678 864.54222
50.984283 897.80715
50.975054 909.58924
50.939632 933.5292
50.915311 948.97677
50.983494 923.21551
51.036554 903.48293
51.079162 884.69762
51.1249 867.74907
51.108866 885.04357
51.115849 885.64485
51.266874 825.15272
51.453906 734.79073
51.405937 764.61742
51.601078 674.38959
51.612009 680.3695
51.56555 708.69812
51.700619 652.29093
51.57551 725.13397
51.580616 719.20005
51.537951 750.41555
51.505731 763.8702
51.570087 749.90895
51.520856 779.31779
51.52539 779.22996
51.499882 797.35629
51.523377 771.66616
51.495847 791.22918
51.486266 800.50497
51.412372 843.14852
51.337371 885.31269
51.445336 834.46792
51.462904 824.01114
51.342747 879.9581
51.310459 897.67175
51.352549 881.08953
51.411649 856.65563
51.374389 882.95231
51.306827 919.96476
51.225173 962.04277
51.264367 943.47009
51.282104 936.94623
51.277587 950.32976
51.242613 974.82465
51.107794 1047.5831
51.154758 1031.0269
51.11755 1046.8611
51.18481 1019.0391
51.218787 1008.8994
51.258277 996.89526
51.345652 963.11567
51.268722 1003.3114
51.346112 968.85733
51.326574 982.89826
51.502576 896.28583
51.504196 894.46857
51.437974 928.2124
51.478173 911.72282
51.4679 920.37254
51.588386 864.7085
51.628154 850.95583
51.535642 897.65833
51.481468 923.7359
51.420114 954.24644
51.466379 934.42971
51.470071 930.50166
51.439085 949.17393
51.36741 983.24787
51.191644 1065.133
51.251412 1032.0246
51.142487 1079.1352
51.158468 1064.9801
51.142255 1072.0187
51.085856 1099.8147
51.160103 1063.4787
51.16296 1064.5174
51.263116 1019.1444
51.317277 993.45993
51.295086 1004.2493
51.461105 926.08409
51.463936 928.63193
51.540866 890.81329
51.543738 894.04575
51.55244 888.8139
51.50454 909.03636
51.432961 944.97675
51.499017 910.2792
51.418798 950.97129
51.518916 906.16573
51.445651 943.03264
51.405562 965.9379
51.389254 971.52875
51.384216 973.5123
51.41163 960.25601
51.390139 970.45549
51.366235 987.58532
51.406185 970.83722
51.327316 1008.9982
51.408951 967.91778
51.435919 955.52381
51.422616 962.13182
51.410653 968.54673
51.451156 950.8664
51.450502 955.07781
51.352287 1003.8261
51.364762 1004.0854
51.341738 1017.0815
51.273203 1050.4981
51.207835 1089.1761
51.143935 1124.3685
51.296959 1060.2337
51.420906 1001.0546
51.370955 1029.2735
51.336607 1046.9981
51.255843 1093.6222
51.362639 1052.043
51.46175 1011.2248
51.451933 1019.061
51.410347 1042.6334
51.424452 1042.5554
51.511282 1006.5524
51.545905 999.30406
51.624583 963.98812
51.670852 951.88156
51.616465 984.78299
51.616861 990.31568
51.502777 1052.4426
51.592403 1016.0595
51.682672 981.94529
51.580222 1038.3143
51.585756 1041.4288
51.526845 1073.2297
51.585357 1053.4484
51.697086 1008.903
51.677352 1030.6899
51.704923 1029.9748
51.620617 1077.2704
51.485251 1154.1777
51.604498 1108.0956
51.594402 1121.6605
51.726494 1062.986
51.747885 1054.5436
51.770377 1045.8772
51.748086 1064.7163
51.92058 988.40655
51.990224 957.37522
51.946315 976.33292
51.962611 968.10723
51.85252 1028.8848
51.917776 1003.4655
51.928576 1007.3927
51.940222 1006.8341
52.079846 946.85174
52.076771 950.92983
52.279879 863.14656
52.446508 787.54913
52.45151 794.64583
52.710729 680.49919
52.652569 714.70525
52.596541 745.83049
52.473803 806.7735
52.459075 817.93404
52.529809 790.79746
52.405525 850.9091
52.435737 838.48905
52.200801 950.88103
52.166404 966.44365
52.093794 1005.3681
52.005652 1051.7324
52.104131 1010.0714
51.952088 1087.4333
51.904579 1107.3126
51.886936 1123.0305
51.943853 1102.8532
51.978333 1098.1628
51.965489 1116.1912
52.036595 1086.5218
52.04247 1086.9759
52.089792 1070.0022
52.20923 1022.3203
52.111557 1083.4198
52.206102 1043.9575
52.111303 1088.1094
52.233568 1030.5151
52.261143 1028.7149
52.258654 1034.1817
52.357978 993.69451
52.293611 1031.5794
52.267058 1042.8599
52.151635 1115.1635
52.162338 1120.5896
52.242884 1100.3769
52.196353 1135.7368
52.246805 1116.8697
52.214732 1144.4462
52.116949 1200.4696
52.185849 1180.7456
52.199477 1185.5217
52.299689 1148.7479
52.379959 1119.4273
52.410749 1113.0982
52.372448 1138.8473
52.361284 1148.9699
52.474691 1111.0033
52.587249 1073.6599
52.652521 1059.8133
52.731674 1042.8733
52.643902 1091.4126
52.672556 1086.4401
52.781639 1046.4066
52.838789 1028.0246
52.922363 1000.6867
52.905109 1014.3219
52.932686 1003.8139
53.019358 964.5654
52.990757 980.33904
52.914513 1022.7069
52.936842 1014.5748
52.889713 1043.9742
52.948749 1021.608
52.802205 1103.409
52.79594 1116.96
52.674716 1183.0483
52.718775 1170.2681
52.707812 1179.8914
52.669952 1212.0481
52.689673 1212.2583
52.698697 1220.1083
52.706682 1222.7443
52.844765 1164.6736
52.918978 1145.1817
53.075649 1084.25
53.115481 1080.2398
53.165239 1064.2056
53.259933 1029.8902
53.192943 1079.7979
53.320422 1034.8098
53.363266 1036.9348
53.411789 1022.7789
53.355002 1056.1617
53.245556 1122.796
53.264357 1121.4613
53.271273 1133.2808
53.446803 1057.6452
53.388993 1083.2466
53.315048 1123.9985
53.467346 1049.6683
53.489307 1052.5426
53.59221 1012.2355
53.6463 999.43496
53.76768 955.9088
53.816157 948.44295
53.671228 1028.9279
53.741819 1009.3051
53.776089 1008.3713
53.768088 1027.17
53.702623 1062.2989
53.649962 1097.1241
53.614588 1119.3025
53.563454 1143.9128
53.67617 1083.2442
53.645093 1110.8333
53.528618 1171.1104
53.522534 1171.7617
53.349874 1254.4559
53.344454 1251.8055
53.322485 1266.238
53.252497 1307.4359
53.248083 1310.4694
53.212224 1326.7094
53.203538 1321.587
53.275911 1286.6219
53.305155 1272.4216
53.424627 1226.4479
53.405233 1236.8226
53.400295 1237.0182
53.320452 1276.4694
53.355058 1262.2302
53.31423 1297.7217
53.29471 1321.0408
53.147368 1405.8532
53.036237 1457.6473
53.02718 1457.735
53.008387 1466.7169
52.969308 1487.4428
53.04557 1466.3856
52.953426 1509.858
52.92343 1523.1904
52.878081 1555.042
53.035797 1490.5845
53.034875 1507.415
53.114156 1463.943
53.140282 1452.0138
53.219627 1410.4012
53.219132 1415.5362
53.244536 1409.056
53.388966 1345.4341
53.425545 1333.079
53.389325 1347.3628
53.386637 1361.9207
53.386554 1357.9351
53.38874 1356.0417
53.404659 1354.8566
53.33631 1387.4366
53.406952 1360.9041
53.549206 1296.6571
53.66439 1246.2562
53.734437 1216.6848
53.861854 1149.2012
53.853319 1144.2112
54.008565 1058.6973
54.072209 1029.7256
54.075804 1021.0299
54.073758 1014.526
54.176451 967.32953
54.248121 929.83976
54.284105 923.0545
54.339834 904.79605
54.393254 879.96458
54.419714 875.70154
54.323824 921.50841
54.218752 976.97972
54.260478 954.2639
54.273122 950.03053
54.16359 1009.3088
54.169308 1007.7749
54.245068 964.4345
54.385255 888.0683
54.326064 920.11517
54.136776 1005.7373
54.141015 998.55235
54.219774 956.27429
54.14357 995.77969
54.106049 1020.9917
53.888417 1140.0022
53.832354 1167.162
53.8474 1158.4725
53.733657 1211.1671
53.671743 1246.3313
53.545371 1310.2845
53.581289 1288.8984
53.618052 1273.7779
53.64134 1250.2392
53.617962 1256.3893
53.653743 1229.1097
53.460864 1324.6579
53.380862 1355.0388
53.335099 1378.4665
53.350549 1371.0852
53.126843 1483.5078
52.956342 1574.1314
52.966521 1573.0553
53.083399 1513.2205
53.136439 1489.131
53.056506 1528.0696
53.058288 1527.4708
53.13939 1489.2038
53.293927 1404.9129
53.415294 1353.7942
53.331962 1396.1135
53.200216 1455.0332
53.228538 1450.4155
53.135148 1491.3675
53.025975 1546.3883
53.060969 1541.7695
53.191774 1476.7646
53.189288 1496.1098
53.242127 1471.03
53.231742 1485.2212
53.312716 1454.0554
53.317887 1448.078
53.125198 1540.1067
53.256263 1470.3454
53.131819 1523.0204
53.18123 1497.3208
53.280255 1456.0101
53.154328 1524.9885
53.169738 1520.0007
53.312632 1450.6968
53.469775 1376.5244
53.430765 1396.3099
53.34284 1448.4081
53.491976 1382.7331
53.734944 1269.1335
53.848876 1226.3739
53.948428 1188.1398
53.960573 1188.6651
54.04944 1150.7668
54.090483 1137.5544
54.008598 1185.5644
53.948329 1222.0731
53.994047 1209.1726
53.99862 1214.6467
54.009899 1216.2705
54.053636 1201.103
54.114506 1176.5756
54.002498 1230.1599
53.999103 1231.3694
54.090873 1189.4616
54.15722 1155.2482
54.271468 1101.6226
54.302281 1097.7165
54.302172 1106.1158
54.301002 1114.6366
54.279447 1134.5135
54.349642 1100.977
54.348219 1101.0888
54.368996 1090.7076
54.474269 1042.6363
54.416393 1074.451
54.471468 1046.9392
54.472787 1051.5811
54.420919 1074.3726
54.436956 1063.493
54.424549 1074.2624
54.432606 1068.9012
54.308359 1136.634
54.321681 1130.8863
54.289354 1141.0398
54.299316 1143.5319
54.213356 1191.4979
54.058829 1276.4561
54.062546 1283.2866
54.037057 1293.59
54.065374 1279.4999
54.034248 1288.1764
53.924559 1337.5393
53.926518 1341.2658
53.938291 1337.1451
53.862129 1376.5373
53.90967 1354.5112
53.811496 1404.1337
53.753738 1436.9821
53.680448 1478.9149
53.613909 1516.8879
53.700707 1482.8243
53.747014 1465.9092
53.751282 1473.9652
53.869191 1424.9312
53.889699 1421.4842
53.874059 1433.6337
53.918077 1416.0599
53.931377 1418.8231
53.936985 1424.4921
53.937677 1432.0594
53.984372 1420.2766
53.992389 1413.249
54.053342 1391.9216
54.091652 1375.595
54.127745 1368.6182
54.124792 1381.7062
54.190645 1355.1009
54.162073 1370.3396
54.11408 1390.5654
54.240541 1342.4738
54.499909 1227.8274
54.381662 1292.3927
54.215256 1374.8849
54.238648 1364.3897
54.308093 1334.3122
54.36019 1316.2367
54.467097 1271.0295
54.528289 1248.6996
54.430943 1297.8048
54.339534 1344.0031
54.335846 1347.5092
54.504158 1270.5763
54.540134 1264.3584
54.477055 1299.2122
54.539818 1272.9728
54.442197 1321.2851
54.467052 1307.5098
54.463358 1314.9651
54.395194 1354.2684
54.486585 1318.1556
54.454466 1337.3685
54.383875 1369.3127
54.282646 1421.2154
54.297886 1417.9521
54.49899 1327.7725
54.37352 1392.8639
54.332235 1416.5741
54.313392 1431.7019
54.295374 1443.3993
54.473705 1363.497
54.699471 1259.6149
54.811221 1210.7504
54.739863 1246.7205
54.743272 1252.3563
54.754108 1248.421
54.812729 1226.0793
54.821384 1229.7081
54.642106 1320.2929
54.493741 1399.2195
54.486045 1404.229
54.438918 1435.2846
54.447609 1430.7623
54.559686 1378.4658
54.631758 1351.0684
54.576146 1379.506
54.469053 1439.0119
54.692272 1336.719
54.884264 1248.2967
54.827573 1277.568
54.756337 1315.3443
54.675951 1362.2497
54.708236 1348.0593
54.678142 1363.5702
54.706035 1357.1658
54.766701 1331.6706
54.749819 1343.6493
54.686514 1376.7062
54.621932 1406.8207
54.710671 1362.9602
54.892785 1273.1085
54.852775 1296.155
54.946884 1253.3467
54.817269 1318.119
54.905597 1280.2062
55.019269 1231.5649
54.845189 1319.3876
54.820324 1338.6272
54.87112 1319.768
54.898973 1308.9027
54.901311 1311.2622
54.882876 1324.3872
54.942252 1302.2045
55.153222 1202.6646
55.25205 1162.0314
55.401878 1093.9864
55.331964 1131.1391
55.435653 1081.2615
55.470436 1067.5381
55.276292 1161.8952
55.146068 1226.2249
55.179663 1213.7995
55.28522 1164.6601
55.248202 1187.1861
55.268536 1183.2568
55.304138 1169.9079
55.240857 1206.3247
55.208898 1225.8947
55.290632 1189.4278
55.354112 1166.0424
55.304058 1190.123
55.222702 1234.9293
55.187325 1253.3188
55.218788 1241.0507
55.195177 1259.6984
55.237761 1242.2614
55.196833 1270.4051
55.14445 1299.0883
55.224376 1264.9542
55.104023 1328.4469
55.032383 1365.7078
55.175664 1302.0589
55.268197 1261.6321
55.221112 1285.8276
55.156474 1322.0917
55.300153 1258.3574
55.290136 1269.7224
55.201061 1318.3256
55.109362 1366.3318
55.140444 1357.2028
55.117749 1369.8018
54.929163 1466.471
55.057355 1410.0715
55.130731 1378.5782
55.120486 1389.2583
55.098638 1400.4762
54.921121 1492.2213
55.084865 1417.9792
55.129019 1404.0811
55.235762 1356.1991
55.344241 1305.4442
55.211031 1373.8595
55.305411 1331.6706
55.278336 1352.1292
55.339792 1328.2479
55.374003 1317.6917
55.356351 1332.638
55.338044 1344.4174
55.165946 1432.7414
55.247013 1396.6754
55.353301 1350.9818
55.361106 1352.093
55.445021 1314.1478
55.410377 1338.1366
55.497111 1299.1123
55.560223 1273.07
55.57563 1270.2965
55.579071 1273.5968
55.439545 1348.8076
55.547828 1305.7747
55.580636 1298.319
55.569738 1310.8715
55.508489 1346.4099
55.434491 1386.8157
55.54708 1335.1801
55.538297 1338.6005
55.650864 1287.2231
55.842079 1199.0215
55.831585 1204.6749
55.957722 1146.2143
55.831494 1210.6634
55.806315 1223
55.772391 1240.5731
55.722301 1268.9254
55.71954 1276.931
55.73941 1273.3753
55.733032 1278.6296
55.809442 1250.9246
55.693247 1314.6841
55.728462 1303.0869
55.808202 1271.2022
55.869707 1241.2326
55.781818 1285.4494
55.685689 1333.748
55.658128 1348.1111
55.673738 1345.566
55.738449 1317.6033
55.6422 1366.0269
55.580063 1400.0257
55.587387 1395.5894
55.496888 1442.276
55.523246 1432.9118
55.425424 1485.6722
55.455305 1476.7509
55.474496 1471.0811
55.557539 1437.117
55.498012 1471.3983
55.329243 1558.3541
55.379756 1540.0572
55.300492 1583.3821
55.324285 1575.4019
55.414404 1537.3302
55.325041 1585.6913
55.236337 1633.9651
55.127342 1691.7133
55.295991 1615.89
55.2927 1620.6083
55.158931 1690.4524
55.191699 1682.6175
55.158625 1705.2881
55.206172 1688.7401
55.256484 1671.4472
55.23663 1686.2601
55.324661 1649.0117
55.367106 1634.2849
55.23263 1706.6837
54.974007 1836.5211
55.004642 1826.3064
55.18801 1738.3118
55.242123 1714.748
55.315379 1683.1938
55.413425 1638.34
55.409378 1645.9782
55.519518 1596.1766
55.25307 1726.8602
55.2378 1735.3897
55.298887 1709.2506
55.362924 1682.7299
55.322537 1707.0126
55.186291 1778.4813
55.139713 1807.6058
55.165943 1800.8352
55.22077 1775.1337
55.362047 1712.4037
55.472152 1664.887
55.495363 1657.0528
55.665477 1580.6581
55.745523 1544.1279
55.776633 1530.8534
55.741891 1553.3289
55.670293 1593.1606
55.700678 1583.6256
55.810142 1534.8502
55.808038 1540.2165
55.866487 1519.6214
55.983346 1472.4114
56.191012 1382.3672
56.17899 1399.622
56.202269 1397.495
56.249103 1383.4281
56.251807 1387.2666
56.320157 1364.3634
56.256917 1402.7024
56.426128 1331.9664
56.578596 1268.3406
56.563026 1283.5816
56.500448 1319.5248
56.454485 1345.0311
56.576203 1289.2899
56.45611 1354.0752
56.265681 1451.2445
56.306711 1439.488
56.388418 1408.3363
56.327576 1445.1955
56.208393 1508.8803
56.401393 1426.2296
56.494238 1393.0721
56.379819 1455.571
56.25469 1526.2354
56.219516 1545.2882
56.197243 1556.6163
56.248079 1532.3347
56.400743 1460.4959
56.407525 1458.0403
56.335488 1493.9725
56.434537 1446.6017
56.498775 1413.5776
56.487448 1413.5052
56.381113 1465.2882
56.436169 1441.7995
56.431377 1441.8468
56.449216 1436.4579
56.5112 1409.914
56.439377 1449.1564
56.580518 1387.3653
56.595111 1384.8952
56.598855 1391.6887
56.613293 1389.9795
56.627076 1386.242
56.709649 1350.7257
56.678261 1366.405
56.644753 1386.0826
56.685615 1367.1491
56.683359 1369.6196
56.798735 1316.8348
56.74174 1344.2234
56.791225 1324.5336
56.818179 1314.917
56.77321 1341.7678
56.789777 1337.7085
56.870444 1304.7474
56.914375 1291.0612
56.919457 1295.6561
57.036713 1244.2508
57.139867 1198.1381
57.163649 1190.9788
57.133416 1210.402
57.210239 1178.2685
57.156142 1209.7198
57.15506 1217.06
57.29525 1155.1482
57.326659 1143.5319
57.250512 1183.8252
57.303428 1165.2651
57.232283 1204.6591
57.325774 1163.9442
57.461281 1105.1225
57.537603 1074.0197
57.501237 1097.3217
57.554545 1081.0602
57.671499 1032.5864
57.703674 1025.7426
57.797044 989.37942
57.856339 968.65202
57.912683 951.87586
57.939915 946.16591
57.95051 950.4554
57.90479 979.82597
57.921612 976.26012
57.982073 953.9354
58.076679 916.07329
57.904556 1006.4377
57.787638 1070.2981
57.855287 1045.1329
57.914909 1021.8036
57.936565 1015.1578
57.773647 1099.1841
57.742875 1118.9744
57.78523 1105.7137
57.767066 1120.86
57.687441 1167.0576
57.662081 1188.4464
57.654847 1201.477
57.710529 1180.842
57.696609 1193.4498
57.783424 1153.8623
57.76864 1165.8708
57.858318 1127.853
57.883734 1120.0631
57.946513 1095.7935
57.951427 1095.5951
57.918956 1112.1412
57.90033 1124.025
57.80989 1170.3298
57.697987 1231.223
57.674865 1248.4922
57.583401 1302.1198
57.619188 1294.1759
57.738906 1247.4771
57.663837 1296.0975
57.810696 1239.0228
57.788687 1264.406
57.821035 1263.3036
57.876872 1249.5085
57.934792 1230.1377
58.035541 1190.1328
58.029175 1203.4016
58.02013 1216.3193
58.049766 1209.8043
58.039813 1225.639
58.165262 1169.8379
58.010371 1256.8277
57.92703 1302.8304
57.809078 1367.5307
57.770418 1394.88
57.714482 1423.6371
57.723374 1436.0787
57.825699 1392.9855
57.840989 1397.9116
57.698769 1469.1233
57.614023 1512.109
57.467205 1584.1513
57.445161 1588.3089
57.482604 1574.1676
57.405998 1612.1509
57.404541 1611.2693
57.199301 1714.6165
57.032912 1789.0794
56.949518 1830.1042
56.890812 1863.1523
56.976627 1823.5932
56.895835 1865.805
56.722169 1947.9948
56.682997 1964.3455
56.697688 1962.0137
56.804835 1907.7698
56.7693 1924.8599
56.807256 1909.5561
56.90906 1855.6742
56.772303 1925.2361
56.772485 1922.2792
56.691026 1963.2667
56.749281 1936.5783
56.795765 1911.1707
56.745853 1940.9162
56.754353 1931.9099
56.794556 1914.9586
56.999181 1817.947
57.098847 1767.9495
57.15738 1743.0286
57.112139 1764.125
57.141678 1754.1993
57.301028 1681.8261
57.304713 1680.4927
57.327071 1670.8979
57.215588 1729.182
57.134872 1768.7179
57.109342 1789.4705
57.128609 1781.3543
57.263313 1721.6041
57.303678 1702.624
57.377153 1669.3118
57.386597 1667.7073
57.364064 1678.121
57.554417 1590.6532
57.666334 1538.2599
57.675947 1538.1265
57.779121 1494.3632
57.610823 1579.7631
57.685471 1549.7351
57.628811 1584.7753
57.717191 1545.4365
57.664179 1580.2171
57.719182 1559.1089
57.653596 1596.7903
57.713359 1574.0216
57.719758 1576.7929
57.691922 1595.8358
57.772902 1562.4214
57.828737 1539.3108
57.912164 1501.2654
57.857636 1531.9055
57.820889 1554.1733
57.865012 1540.2763
57.929906 1513.4995
57.823384 1572.9574
57.689056 1641.2751
57.69722 1644.6475
57.708829 1644.5251
57.587177 1710.2283
57.452602 1783.4092
57.529039 1751.1441
57.514707 1767.8138
57.527713 1765.8827
57.539806 1764.8943
57.565659 1756.9721
57.654305 1718.428
57.604021 1750.8761
57.607967 1750.8998
57.645487 1739.8271
57.620573 1758.7099
57.765044 1693.3242
57.680159 1740.8528
57.682102 1744.0906
57.647008 1767.4715
57.697739 1748.4556
57.756784 1723.51
57.716872 1751.5238
57.778978 1723.7322
57.773423 1730.2711
57.832791 1708.7718
57.747884 1752.2789
57.728784 1765.5514
57.831021 1716.997
57.850447 1706.0459
57.87793 1695.1692
57.800485 1734.0601
57.918314 1682.0922
57.881246 1706.6109
57.920225 1689.9034
57.748742 1777.8001
57.722876 1794.0775
57.679788 1817.4217
57.581806 1870.4235
57.496564 1914.9345
57.517677 1911.2672
57.642924 1855.9776
57.666857 1848.5132
57.722547 1828.0298
57.827941 1781.9775
57.89032 1756.7296
57.904738 1757.5236
57.856993 1789.6798
57.75394 1846.3104
57.960102 1756.0084
57.952231 1764.5859
57.955993 1771.2357
57.894017 1809.5609
57.899449 1809.5602
58.025391 1750.9863
58.007961 1766.4819
58.053797 1751.5855
58.141372 1715.6038
58.344581 1624.9584
58.384558 1617.0397
58.457455 1595.5034
58.330966 1664.1638
58.480083 1603.8022
58.507874 1603.2049
58.500495 1615.0842
58.492917 1629.1751
58.568032 1604.7468
58.573759 1608.057
58.5614 1618.078
58.657205 1578.31
58.653033 1586.9378
58.613552 1610.1352
58.656493 1590.8628
58.792215 1530.8553
58.631316 1610.0468
58.608155 1629.381
58.659051 1613.1539
58.876759 1519.7228
58.820194 1549.9307
58.887288 1525.5385
58.975551 1482.0421
58.98015 1480.7118
58.844044 1551.3639
58.685581 1630.6903
58.799589 1581.0732
58.925078 1516.4221
58.835234 1563.1319
58.719166 1621.7687
58.687399 1639.344
58.860796 1555.0164
58.876354 1546.3147
58.862779 1560.0252
58.873319 1556.7527
58.948263 1521.5052
58.876135 1563.0572
58.748211 1632.9771
58.67702 1670.6185
58.707658 1657.4073
58.697125 1666.7692
58.686332 1675.9581
58.590215 1728.4993
58.665714 1693.4725
58.650419 1701.368
58.733785 1660.8898
58.706093 1670.2258
58.785061 1634.1012
58.833427 1614.0089
58.773583 1644.7961
58.84335 1615.3788
58.890546 1591.5589
59.029187 1528.4817
58.898983 1594.1616
58.914568 1596.5677
58.882599 1624.4827
58.861821 1637.4232
58.997322 1581.6103
58.989247 1594.0892
58.969748 1609.6084
58.884554 1658.1037
58.817963 1692.2985
58.894609 1658.5196
58.988658 1614.4365
59.060264 1581.4258
58.931119 1650.1724
58.897581 1669.5066
58.97458 1634.15
59.107834 1573.823
58.992359 1633.4875
58.852575 1703.5541
58.900195 1688.5842
58.889956 1698.1874
58.794364 1752.4161
58.696659 1806.1024
58.683793 1815.9275
58.765538 1783.9597
58.802458 1766.2132
58.793841 1778.2888
58.869269 1750.2144
58.857336 1760.6543
59.02447 1687.1536
59.102888 1652.1275
59.126566 1642.4473
59.018319 1696.6989
59.067797 1678.6844
59.146519 1645.8455
59.175258 1635.4304
59.194555 1632.9889
59.160871 1656.967
59.084724 1695.9041
59.117784 1685.6628
59.09613 1705.728
58.987227 1765.1741
58.984292 1772.1776
58.947439 1794.9337
58.964334 1789.8498
58.948359 1799.7709
59.070752 1741.7315
59.228933 1670.4241
59.178221 1700.6945
59.184096 1701.9402
59.216454 1694.7662
59.306684 1656.0739
59.310998 1661.404
59.336025 1660.7316
59.388652 1641.2869
59.543637 1576.0358
59.662271 1526.0013
59.647415 1542.3313
59.772491 1491.8569
59.8937 1438.1451
59.819761 1479.4882
59.906891 1445.2553
59.944935 1430.933
59.905449 1453.9822
60.039412 1396.9461
59.997931 1423.4427
59.946043 1450.3663
59.915862 1465.4327
59.804109 1524.034
59.87175 1493.4686
59.848412 1505.1028
59.890936 1486.6369
59.712631 1571.3072
59.630667 1611.1717
59.65544 1597.4131
59.751057 1551.4604
59.659577 1597.2176
59.549697 1650.0108
59.546172 1655.9047
59.527324 1664.2755
59.376453 1737.5434
59.294887 1779.3157
59.20364 1827.4397
59.144701 1860.4294
59.193657 1841.6412
59.070506 1902.5547
59.12557 1879.3092
59.000542 1941.026
59.014946 1936.2116
59.021093 1939.1075
59.089847 1907.517
59.048613 1934.2287
59.1933 1869.3992
59.172092 1884.575
59.258453 1847.8011
59.334138 1816.3464
59.243829 1865.1532
59.170915 1904.8041
59.324091 1836.9499
59.267355 1867.5763
59.379768 1820.1087
59.403637 1815.2444
59.405887 1820.6706
59.62306 1723.9141
59.553473 1762.8042
59.815129 1641.0174
59.81704 1647.7027
59.868249 1625.9861
59.762629 1684.698
59.741099 1696.8216
59.898984 1624.8589
59.917482 1622.99
59.965411 1603.4633
59.815915 1680.9185
59.931691 1629.6036
59.885997 1658.3477
59.879486 1668.27
59.901494 1662.1115
59.919496 1660.1789
59.970922 1644.1828
59.996893 1636.7535
59.871911 1701.9905
59.960372 1666.0972
59.910712 1694.3397
59.98391 1664.3731
59.988811 1664.6297
60.063249 1635.7148
59.940566 1700.4482
59.957709 1695.6967
60.085741 1639.8929
60.130019 1622.1491
60.076242 1653.9237
60.034654 1682.2759
60.147692 1635.7742
60.216737 1607.2012
60.211591 1615.2069
60.224695 1614.7434
60.148445 1656.1113
60.048427 1707.9038
60.033663 1716.1169
60.124212 1674.7254
60.158859 1656.146
60.199619 1639.2941
60.153961 1665.3146
60.19966 1645.2204
60.302362 1601.6912
60.187358 1658.8379
60.059733 1725.0149
60.0656 1730.833
60.059488 1738.5074
60.035759 1754.7734
60.151802 1706.6333
60.269097 1654.203
60.364611 1612.0023
60.404655 1595.2503
60.42319 1589.7745
60.560025 1528.3963
60.473169 1569.3258
60.450838 1585.1035
60.610408 1513.8674
60.613566 1513.8788
60.649664 1499.6667
60.721031 1469.4656
60.674912 1493.6031
60.708821 1479.4661
60.776403 1452.2105
60.760713 1462.5368
60.727607 1483.8158
60.675737 1512.7299
60.709588 1500.2262
60.788069 1466.0704
60.657407 1530.696
60.610132 1558.0575
60.651511 1544.8708
60.605709 1570.2445
60.66616 1545.9979
60.600862 1582.8926
60.64079 1566.3442
60.537728 1621.8563
60.546604 1620.2897
60.572159 1613.5804
60.623215 1594.3313
60.615923 1603.3631
60.603101 1612.9331
60.523265 1654.1291
60.468924 1684.1605
60.56715 1642.2411
60.563115 1648.3633
60.368594 1745.387
60.320364 1772.457
60.30976 1781.3912
60.279052 1801.017
60.223284 1831.194
60.207787 1843.111
60.169144 1865.8789
60.146944 1880.7883
60.259472 1832.8541
60.137187 1895.7849
60.108807 1918.1125
60.242122 1860.2927
60.317807 1831.0484
60.298875 1844.7242
60.333198 1830.62
60.262554 1869.9725
60.27741 1866.5761
60.454561 1788.7382
60.622104 1713.3537
60.586466 1735.2078
60.562013 1751.3278
60.469622 1800.9934
60.52195 1780.367
60.537614 1778.7382
60.651061 1729.304
60.727963 1697.7997
60.59007 1769.1197
60.529419 1801.5705
60.53099 1806.7036
60.703268 1729.3654
60.717411 1728.4246
60.660142 1760.1897
60.671102 1759.0869
60.622887 1787.2958
60.708946 1752.3887
60.637346 1791.2647
60.547513 1842.3506
60.669586 1789.4693
60.79404 1737.9802
60.805019 1738.4098
60.643496 1820.6332
60.638724 1831.0591
60.758236 1779.0439
60.781912 1775.9403
60.766667 1787.393
60.709534 1819.973
60.754634 1805.6736
60.699212 1836.2783
60.67421 1853.4618
60.610356 1889.317
60.69254 1854.9629
60.811511 1805.7872
60.633406 1894.3387
60.437669 1989.7535
60.414391 2009.3083
60.564864 1940.3055
60.586607 1937.7028
60.516647 1974.7427
60.474297 1997.0745
60.523788 1982.0417
60.536373 1977.9374
60.545758 1980.9904
60.473711 2020.0494
60.576778 1973.9986
60.532972 2002.381
60.524264 2008.3763
60.484954 2031.1575
60.466385 2048.1924
60.585464 1994.4215
60.462247 2060.5863
60.51002 2039.7506
60.419043 2089.8225
60.449265 2082.8175
60.49888 2064.819
60.386431 2126.9493
60.424883 2113.7145
60.45321 2105.9391
60.648101 2019.8428
60.711285 1995.8033
60.699154 2004.9796
60.701495 2012.3384
60.792342 1973.306
60.85099 1954.4346
60.881259 1942.1284
60.791212 1990.4095
60.920294 1938.1168
61.010018 1899.609
61.051237 1887.9851
61.011765 1909.702
60.993429 1923.4141
61.104058 1881.0452
61.299906 1793.455
61.377591 1766.2017
61.385534 1768.5597
61.493826 1718.2675
61.397676 1773.8007
61.536381 1708.6125
61.406199 1781.7454
61.340061 1814.0845
61.286773 1842.9151
61.252773 1868.7382
61.356231 1816.3701
61.318711 1841.1902
61.214733 1893.1589
61.279143 1865.7909
61.364742 1836.5695
61.375901 1833.918
61.341473 1858.4104
61.317582 1876.1794
61.497161 1793.6975
61.332097 1882.4636
61.280955 1906.3426
61.285893 1916.9736
61.356163 1890.6244
61.450689 1853.1401
61.378235 1895.661
61.459617 1860.3293
61.484054 1859.204
61.477889 1868.2244
61.510677 1859.9111
61.542451 1847.4844
61.562095 1845.5201
61.609858 1825.9272
61.558913 1858.5704
61.580532 1852.7871
61.657871 1823.1155
61.627833 1842.4139
61.573689 1867.9808
61.528583 1897.8502
61.58433 1872.1715
61.660551 1845.7363
61.645025 1857.0793
61.44716 1954.4811
61.438641 1968.8309
61.497734 1941.3302
61.589035 1907.0353
61.540048 1936.0504
61.425506 1994.7981
61.434133 1999.7874
61.534504 1953.1135
61.695231 1882.5829
61.859901 1809.23
61.896369 1795.3972
61.862261 1817.6897
61.99205 1754.0785
62.064533 1726.2724
62.021592 1750.5693
61.877476 1824.7665
61.864515 1840.519
61.80263 1873.7741
61.836869 1865.6071
61.759851 1909.9223
61.763975 1911.3777
61.807296 1902.4172
61.849186 1885.7128
61.962067 1836.2268
61.955668 1849.6743
62.000081 1827.5499
61.955753 1863.7301
61.970816 1857.7032
62.02286 1842.5343
61.982657 1870.6708
61.922026 1903.7258
61.822339 1967.4716
61.93024 1919.8336
62.018096 1886.0063
62.023755 1893.2649
61.885469 1958.8926
61.686523 2061.4821
61.826122 1999.8111
61.97319 1933.7918
61.897723 1980.2188
61.96467 1950.7177
61.921989 1978.9384
61.965462 1958.5252
61.882754 2003.9645
61.775099 2063.8275
61.893128 2012.7783
61.918611 2013.8936
62.062934 1943.4828
62.252457 1862.5275
62.223655 1878.5659
62.222782 1884.2578
62.228722 1890.6152
62.291294 1866.1358
62.514398 1765.7981
62.515165 1775.9166
62.580376 1750.3116
62.566185 1766.4438
62.655002 1733.0335
62.710399 1708.4905
62.624123 1760.8971
62.712801 1719.4766
62.700445 1734.4249
62.802275 1691.955
62.828405 1679.3576
62.84188 1681.3123
62.914476 1647.4111
62.81685 1696.0135
62.79639 1709.663
62.855224 1676.2532
62.882251 1668.6508
62.846915 1686.8856
62.64918 1784.6165
62.764039 1740.804
62.896738 1676.1434
62.961779 1652.8224
62.969002 1648.7773
62.886744 1690.8305
62.995973 1649.5236
63.020932 1641.9208
62.896844 1713.4429
62.803843 1763.5971
62.807374 1766.6027
63.013001 1676.5928
62.990133 1688.142
63.031579 1678.7698
62.960739 1717.2284
62.922969 1741.794
62.89227 1761.2135
62.858252 1778.7889
63.004159 1716.5804
63.200958 1626.1073
63.213747 1624.3127
63.322236 1575.5098
63.261692 1606.2833
63.338827 1570.3661
63.232035 1627.3672
63.313255 1588.6146
63.316795 1595.4942
63.369267 1569.2034
63.406999 1554.11
63.330794 1596.7163
63.358379 1581.2299
63.192827 1669.0884
63.269118 1632.5963
63.31852 1610.8183
63.357475 1598.5712
63.370435 1595.2488
63.320505 1625.5931
63.443457 1569.1802
63.650073 1467.5002
63.702695 1450.2668
63.733172 1428.8933
63.659473 1471.0914
63.83866 1387.6924
63.844758 1387.6451
63.837201 1398.9747
63.896158 1367.2215
63.877356 1387.9767
63.870688 1393.3789
63.865589 1404.67
64.023499 1338.6989
64.129584 1287.1255
64.094908 1311.6415
64.09941 1312.5704
64.192035 1273.2423
64.30847 1226.372
64.304364 1232.6296
64.229259 1278.9624
64.284416 1251.2917
64.495096 1151.6213
64.616235 1098.5743
64.444551 1185.9287
64.445108 1186.2718
64.519301 1156.4633
64.560483 1136.3958
64.471241 1185.716
64.417019 1220.3547
64.465868 1199.8907
64.389687 1243.249
64.450285 1212.5676
64.402119 1244.6308
64.354942 1268.2068
64.462167 1218.0463
64.645272 1136.8137
64.66923 1129.2316
64.602949 1167.2775
64.780661 1088.6773
64.909257 1031.7603
64.861505 1061.1467
64.849474 1070.701
64.74496 1132.2222
64.761541 1131.0574
64.774056 1132.897
64.833696 1114.7504
64.867636 1098.9325
64.906046 1093.1493
65.018001 1043.9352
64.941125 1090.5438
64.97533 1080.1654
65.04544 1050.1391
65.195459 995.34956
65.357377 921.81008
65.308241 958.22817
65.383763 927.86598
65.301181 969.17402
65.343968 956.09582
65.452675 907.38454
65.484007 900.62449
65.573423 863.83199
65.572671 867.21123
65.513857 901.41806
65.343308 983.41986
65.225667 1042.4627
65.344106 985.97092
65.308847 1004.5387
65.277377 1022.8143
65.290773 1019.8432
65.322271 1012.1501
65.44403 957.85697
65.360266 1005.7242
65.447404 966.00094
65.359522 1012.9567
65.32526 1029.9492
65.372511 1010.6614
65.400339 1001.2453
65.589118 918.50892
65.559078 940.94464
65.578261 933.15395
65.652004 902.66902
65.687998 885.86359
65.641864 911.83748
65.568483 950.1464
65.543049 966.95834
65.607012 941.19668
65.559557 964.73655
65.533818 978.77016
65.589905 954.11836
65.658216 923.21101
65.639108 935.09359
65.662622 923.1655
65.622623 941.91057
65.619985 941.27109
65.748 882.57341
65.624038 944.22993
65.564118 971.19536
65.439975 1037.6524
65.43321 1041.5402
65.438054 1040.6369
65.287439 1117.8926
65.297555 1110.0332
65.294009 1121.8255
65.310727 1112.5478
65.436349 1056.9146
65.574444 993.39528
65.598661 980.89763
65.549803 1008.0094
65.616091 977.75338
65.486263 1046.5505
65.569747 1011.859
65.575402 1016.1969
65.591409 1010.119
65.603646 1010.1166
65.481298 1073.5143
65.453892 1094.1421
65.433876 1112.096
65.399092 1132.5803
65.51615 1084.9086
65.617771 1035.6359
65.616239 1040.1441
65.678267 1014.2755
65.790743 962.69896
65.810563 960.69467
65.857406 941.15399
65.850321 949.89597
65.829028 963.51042
65.795412 981.77253
65.713179 1029.354
65.851476 969.37444
65.89898 957.13294
66.001466 917.2828
66.212958 826.13046
66.347546 775.59338
66.344342 789.30259
66.37598 788.27886
66.452055 761.73625
66.48831 757.27233
66.482574 770.28917
66.500158 768.34466
66.548314 751.28756
66.576303 742.66389
66.551729 758.92822
66.460153 803.33536
66.425184 823.86759
66.244959 912.09318
66.226643 922.16131
66.210239 932.92913
66.248028 922.44063
66.322181 892.29313
66.277131 917.41286
66.244388 938.01423
66.116609 1007.0122
66.134759 1007.9249
66.264001 952.22913
66.216441 988.03009
66.26009 976.04711
66.261738 984.25123
66.305478 971.72712
66.357146 956.28366
66.442597 924.63718
66.436298 935.99776
66.464145 929.15477
66.442461 944.81819
66.475948 931.54771
66.412871 963.82916
66.404321 970.67826
66.50988 921.5755
66.370912 987.82722
66.234344 1052.9402
66.099224 1120.799
66.17888 1089.8205
66.142449 1108.4603
66.055238 1150.074
65.949319 1201.0132
65.993482 1183.6081
66.101627 1138.9034
66.122006 1135.5449
65.955862 1221.1275
65.867109 1267.8409
65.983747 1215.0097
66.082505 1173.5241
66.06627 1183.1577
66.086028 1174.0335
66.146056 1150.1167
66.307167 1084.1846
66.34816 1065.7981
66.328745 1073.4159
66.191726 1137.7366
66.09717 1188.0163
66.197469 1141.3747
66.289505 1093.8474
66.288645 1101.7445
66.257175 1113.6385
66.268393 1104.5521
66.277293 1098.8239
66.274037 1101.2644
66.361229 1059.0518
66.268715 1104.2778
66.180775 1149.6756
66.103859 1189.6965
66.081258 1201.1368
66.03964 1221.9121
65.908016 1289.6684
65.834805 1325.7584
65.871334 1315.1606
65.98377 1266.1766
66.029303 1254.2009
66.08529 1229.8675
66.073521 1243.0043
66.181079 1201.4901
66.299055 1149.624
66.391906 1111.7846
66.409182 1107.1768
66.344628 1142.52
66.187019 1218.8602
66.235917 1203.7561
66.343822 1158.96
66.363359 1155.5832
66.21182 1229.9666
66.268791 1206.876
66.567424 1071.9406
66.774966 982.10751
66.713815 1020.9726
66.767918 1003.4329
66.896903 950.78467
67.108196 864.81829
67.211068 824.06314
67.151811 862.42573
67.033658 931.40257
66.99579 959.573
66.978007 978.30831
66.932357 1011.9973
66.911389 1025.9174
66.924468 1022.9354
66.975866 998.83977
67.047615 971.16938
67.210911 896.62692
67.306148 853.52481
67.181884 920.75182
67.25047 885.81197
67.279268 881.04355
67.344325 848.32915
67.217545 912.59406
67.194421 926.052
67.210497 919.87205
67.350648 858.93757
67.59455 745.7435
67.690804 705.34003
67.748034 684.09063
67.764778 680.76143
67.853314 645.60727
67.755948 694.09129
67.728571 706.99347
67.672883 736.2852
67.657455 745.66056
67.689375 737.51132
67.739946 713.58929
67.67657 744.47018
67.55458 807.07639
67.519219 823.08905
67.538596 818.34792
67.42393 872.77036
67.507325 834.84194
67.420488 879.28241
67.345662 915.46469
67.250699 965.01466
67.283723 952.22913
67.235827 981.63834
67.097648 1054.2233
66.989921 1109.1616
66.968368 1124.7059
66.961277 1134.559
67.016504 1111.3346
66.96965 1144.8654
66.935514 1164.0572
66.923237 1179.6532
66.974188 1160.6866
66.998574 1155.9743
66.963179 1183.2267
67.070317 1139.2481
67.119803 1124.5425
67.186758 1099.8456
67.053473 1170.4408
67.045246 1180.9838
67.067463 1182.7523
67.046993 1197.3372
66.958529 1248.116
66.853876 1297.2696
66.66036 1392.2651
66.690038 1382.4888
66.794227 1334.2729
66.805902 1336.9889
66.968227 1262.268
66.935995 1280.5138
66.912221 1292.1613
66.801215 1349.037
66.672482 1415.094
66.762609 1378.5161
66.749182 1391.1882
66.757455 1390.982
66.858494 1345.1013
66.808204 1374.1027
66.782798 1386.3742
66.717232 1424.1487
66.646097 1460.9469
66.689128 1443.593
66.701057 1443.8259
66.678883 1457.9656
66.680019 1460.9107
66.664612 1474.6235
66.640016 1492.296
66.656591 1491.0023
66.582427 1532.0778
66.616407 1517.0689
66.621971 1522.9709
66.695148 1489.0197
66.819966 1434.5886
66.807441 1448.776
66.863086 1420.9612
66.817816 1451.7233
66.892622 1414.5565
66.857873 1440.6617
66.759677 1493.9447
66.917185 1421.0088
67.022739 1378.9423
67.185791 1301.6937
67.167287 1320.6592
67.150898 1334.0164
67.252085 1292.8082
67.299341 1278.0338
67.311889 1276.6745
67.294223 1290.1323
67.186233 1348.5625
67.169116 1361.4058
67.219958 1343.7698
67.341914 1287.2829
67.300882 1310.1137
67.335406 1297.6706
67.431584 1256.2181
67.480487 1235.4641
67.446269 1259.3477
67.408039 1282.2863
67.497778 1250.9608
67.643367 1188.4033
67.603871 1215.0781
67.517123 1272.4216
67.509115 1284.6333
67.596508 1265.2869
67.660086 1240.7202
67.598756 1286.5278
67.681517 1256.533
67.70762 1248.5075
67.688715 1267.4967
67.772129 1226.0045
67.883146 1186.6458
67.991194 1139.4339
67.975206 1154.5981
68.018843 1144.6434
68.029053 1148.7516
67.965459 1190.088
67.955371 1207.4545
67.888197 1248.1618
67.818921 1289.3859
67.840676 1287.7007
67.822395 1302.5731
67.920986 1265.8736
67.886228 1292.6256
67.878779 1303.0865
67.921287 1289.8979
68.024853 1242.0266
68.183483 1169.8639
68.153235 1190.3372
68.175159 1182.4226
68.152351 1200.4265
68.265252 1148.6365
68.21161 1175.3816
68.143761 1210.4223
68.220939 1181.9652
68.179044 1208.6725
68.280851 1170.4526
68.198369 1209.6039
68.099347 1257.8794
68.171 1231.6411
68.205567 1211.7952
68.405711 1126.389
68.399632 1124.96
68.390066 1133.4837
68.438946 1108.0594
68.336173 1155.3949
68.445006 1108.8351
68.42548 1117.2242
68.339144 1167.184
68.265348 1200.0964
68.208515 1229.5
68.180558 1239.7928
68.139022 1262.1063
68.220085 1225.3237
68.29466 1190.5775
68.27631 1201.0368
68.404504 1137.0288
68.310949 1184.8924
68.392303 1144.4633
68.322017 1183.6581
68.312119 1186.9405
68.382412 1157.0756
68.302162 1193.9909
68.372013 1162.1652
68.504732 1099.7545
68.481741 1112.7925
68.536356 1086.4962
68.421102 1146.7753
68.531665 1097.1798
68.436785 1143.825
68.354809 1189.4168
68.416672 1156.4902
68.377178 1182.0152
68.581936 1084.7387
68.507501 1124.9307
68.595163 1087.6841
68.541732 1115.5728
68.472337 1154.829
68.527155 1125.5967
68.439756 1170.5209
68.420868 1175.3722
68.395938 1183.0775
68.365067 1201.4535
68.329323 1212.7046
68.210191 1276.8239
68.247381 1260.8621
68.305976 1235.2102
68.285183 1248.862
68.162606 1309.3448
68.077881 1353.6822
68.17375 1311.935
68.164518 1320.3672
68.237514 1287.1987
68.156559 1332.0853
68.164792 1328.3455
68.170701 1334.9236
68.011573 1409.2523
67.909671 1463.258
67.915564 1464.2975
67.977855 1435.5667
68.025257 1419.7868
67.992688 1432.4124
67.960762 1454.1034
68.021541 1428.1851
68.119996 1387.4858
68.266943 1329.9362
68.415088 1265.2835
68.400458 1281.1123
68.4341 1269.1697
68.327423 1327.9914
68.140922 1421.8025
68.215522 1391.8626
68.249966 1387.363
68.197166 1413.554
68.157583 1435.1124
68.018783 1506.0313
68.115735 1462.7465
68.141438 1459.8376
67.933392 1568.8627
67.965292 1560.1975
67.824499 1637.1049
67.903206 1604.8059
67.863491 1630.2886
67.761248 1681.6046
67.735862 1699.3634
67.85803 1651.5271
67.988813 1595.8587
67.938769 1623.4817
67.827734 1676.4106
67.794317 1699.2776
67.938461 1641.0422
67.955883 1635.3332
67.959181 1635.1899
67.975099 1631.1935
68.072421 1589.9091
68.069524 1593.5761
68.141534 1567.0795
68.229797 1532.0633
68.448436 1427.4981
68.459928 1418.0028
68.463357 1417.3811
68.471075 1415.2182
68.66331 1325.4378
68.5219 1393.672
68.313478 1495.5338
68.263329 1520.808
68.284904 1513.6966
68.374567 1476.8618
68.417177 1458.6899
68.350956 1492.2114
68.440088 1454.6058
68.59273 1391.2515
68.640462 1382.2445
68.649216 1383.6228
68.489252 1464.6535
68.369016 1527.8375
68.396505 1515.6022
68.48826 1474.4275
68.42959 1500.9726
68.380505 1525.4886
68.332388 1548.6003
68.305537 1560.5757
68.397848 1515.872
68.354963 1538.1768
68.38987 1520.9064
68.291757 1570.66
68.258093 1590.665
68.469842 1495.4843
68.536791 1470.5909
68.609494 1440.9918
68.489735 1501.4266
68.431845 1533.2015
68.453198 1529.987
68.412128 1555.1251
68.355184 1585.6562
68.405957 1561.5302
68.421318 1558.7936
68.42361 1554.8205
68.55331 1492.7843
68.5545 1494.2626
68.594993 1476.0533
68.708787 1423.0367
68.54962 1499.789
68.606757 1474.5644
68.658146 1454.36
68.542663 1512.3506
68.540368 1517.3857
68.422534 1579.4722
68.692972 1454.1412
68.596344 1505.7256
68.593545 1509.4544
68.606599 1507.975
68.689469 1473.4273
68.664072 1489.8141
68.623031 1513.1938
68.648471 1504.6282
68.755605 1457.2093
68.648654 1511.4728
68.739724 1471.5435
68.774399 1459.3954
68.748281 1476.6041
68.817053 1446.2236
68.679003 1515.8728
68.830668 1447.2611
68.821659 1455.9747
68.804836 1468.6106
68.792737 1478.9137
68.805846 1477.5437
68.821285 1475.5029
68.791238 1494.0945
68.761796 1513.4412
68.925752 1441.0261
68.940708 1439.0611
68.844436 1490.3291
68.841147 1495.9024
69.019478 1416.4262
69.049537 1406.8809
69.10506 1384.296
69.074064 1403.7297
69.224002 1337.7105
69.293519 1308.94
69.169479 1372.8337
69.10627 1407.7485
69.128509 1402.4104
69.186009 1380.3016
69.133661 1409.8633
69.17205 1397.0452
69.163783 1405.3047
69.088068 1446.639
69.043808 1473.4277
69.080746 1461.8396
69.156328 1432.3404
69.088963 1469.2853
68.931737 1548.858
68.995449 1523.216
68.977359 1536.3776
69.090036 1487.0639
69.044573 1511.9858
68.951963 1560.6504
68.901052 1588.7953
68.744507 1667.3803
68.620522 1732.6901
68.643207 1726.078
68.606714 1749.0788
68.572086 1771.002
68.587617 1767.2256
68.516095 1807.1541
68.469485 1834.2854
68.599613 1777.9579
68.518023 1823.3839
68.552332 1810.5402
68.580577 1801.0418
68.628883 1781.8544
68.7373 1732.6653
68.714746 1747.5773
68.734316 1741.5134
68.784571 1721.9338
68.816178 1711.609
68.914956 1668.6272
68.931432 1665.4461
68.978613 1647.1545
68.980754 1650.5277
68.971417 1659.8522
69.040039 1631.8167
69.159492 1579.8141
69.151452 1588.6504
69.126822 1605.0395
69.197509 1576.3198
69.18816 1585.4233
69.221458 1574.5324
69.191781 1593.0379
69.236672 1576.183
69.224144 1586.7052
69.125087 1638.4745
69.142634 1635.1022
69.094303 1662.5148
68.940588 1740.3401
68.900528 1763.9016
69.128284 1660.0809
69.265935 1599.2188
69.11768 1674.4677
69.114977 1680.4927
69.073591 1704.9237
69.046956 1722.6939
68.96604 1765.8453
68.900946 1801.5076
69.008558 1755.0528
69.038804 1745.4503
69.134364 1704.7636
69.090692 1731.0049
69.13092 1716.9967
69.155895 1710.8016
69.220251 1685.9807
69.243491 1680.4314
69.380105 1621.5987
69.573771 1535.9743
69.514402 1570.9771
69.459351 1604.2318
69.519404 1581.6465
69.478796 1607.7623
69.486798 1610.4634
69.401918 1656.3312
69.440871 1644.0254
69.554381 1594.8196
69.510964 1621.8178
69.693452 1540.7654
69.725253 1532.5185
69.781805 1511.8253
69.828122 1497.8099
69.809173 1515.3224
69.841829 1506.0836
69.793053 1536.8537
69.823795 1529.7301
69.829971 1532.0538
69.911384 1498.7629
69.922773 1497.3913
69.994864 1468.8313
70.086075 1429.3923
70.059529 1446.0985
70.102609 1433.1073
70.041289 1468.3316
69.990531 1498.015
69.974795 1511.3367
70.042984 1482.6307
69.960315 1527.6793
69.917809 1552.3905
70.047608 1495.7187
70.068618 1490.2552
70.053718 1500.7294
70.154658 1457.2719
70.250596 1415.7782
70.365185 1365.2557
70.38223 1363.6902
70.424503 1347.8889
70.44793 1342.8161
70.442761 1350.9209
70.461287 1346.4107
70.473659 1348.1691
70.568754 1304.5873
70.567984 1312.7915
70.513961 1342.1822
70.518326 1344.3812
70.559377 1329.3266
70.596609 1312.437
70.587665 1320.3779
70.626605 1305.0546
70.519571 1361.2461
70.403899 1420.3383
70.368068 1443.0795
70.335273 1461.1699
70.273859 1496.0728
70.358499 1458.2473
70.311039 1486.8077
70.346648 1474.6963
70.390612 1458.7112
70.364057 1478.9252
70.315488 1505.5083
70.278382 1531.5377
70.344662 1505.3486
70.319621 1522.579
70.276548 1547.9767
70.384124 1501.1708
70.391886 1501.5124
70.393149 1504.0065
70.337904 1533.9708
70.36436 1526.2247
70.276838 1571.3072
70.25565 1584.8961
70.360994 1538.4932
70.307876 1566.0754
70.397843 1528.471
70.43337 1514.4407
70.273153 1595.479
70.34151 1565.3439
70.36275 1558.1433
70.445095 1523.4134
70.312508 1588.7476
70.197208 1648.1674
70.344979 1579.5553
70.289197 1609.3999
70.235458 1637.5959
70.158932 1677.9022
70.16215 1682.0098
70.066052 1731.5523
70.085274 1728.3751
69.996071 1774.3877
70.022246 1767.0335
70.038451 1764.5523
70.145142 1715.9469
70.160308 1714.9546
70.184658 1705.8393
70.114608 1744.9838
70.118333 1748.0626
70.165654 1730.8074
70.29968 1672.7333
70.348683 1653.8604
70.203516 1728.9126
70.179709 1744.1516
70.309125 1689.9759
70.365557 1667.4893
70.343934 1685.8461
70.42285 1652.665
70.40632 1667.4889
70.338723 1704.9843
70.249116 1751.3389
70.401386 1685.6856
70.558045 1616.7233
70.65488 1576.109
70.517702 1644.4775
70.624145 1598.2422
70.771946 1534.9382
70.740629 1554.5259
70.613079 1619.7293
70.513869 1671.8165
70.7064 1584.6537
70.753525 1568.7899
70.794853 1553.3789
70.778874 1567.8857
70.853544 1536.9154
70.846244 1547.44
70.630945 1653.385
70.569881 1687.9853
70.55372 1701.5388
70.620553 1675.1035
70.673026 1657.7721
70.680115 1657.6616
70.721927 1645.6267
70.728132 1646.1993
70.646384 1687.9823
70.806777 1616.1347
70.895508 1576.8691
70.909305 1575.6585
70.787123 1637.9386
70.782816 1645.4895
70.703759 1689.2543
70.608302 1737.7374
70.508829 1789.1293
70.559576 1767.9868
70.700436 1704.5574
70.557711 1776.2956
70.564878 1776.4541
70.67174 1730.2326
70.775228 1685.6506
70.859614 1649.7935
70.663778 1749.2263
70.547737 1808.8656
70.801175 1694.6092
70.795179 1702.6621
70.674196 1764.5013
70.642696 1787.0015
70.767685 1732.6909
70.913144 1669.077
70.875867 1691.7976
70.961245 1654.8515
71.01189 1635.9198
70.980173 1655.376
70.981109 1660.7168
70.987895 1662.7576
71.060348 1630.6541
71.023236 1653.3747
70.954844 1691.5666
70.922065 1711.3616
70.804892 1773.7401
70.75399 1804.0604
70.754986 1808.6083
70.77144 1805.5028
70.768111 1810.8935
70.749632 1826.1719
70.856349 1778.6802
70.822686 1796.3025
70.808756 1807.753
70.831432 1802.7903
70.859789 1791.5605
70.908152 1771.7491
70.884958 1788.4912
70.816357 1828.1499
70.745449 1865.8785
70.773842 1856.7987
70.74618 1877.5981
70.657379 1925.3604
70.579948 1967.9862
70.695343 1920.4069
70.660759 1942.8214
70.611841 1969.8311
70.554165 2002.3078
70.505858 2027.3571
70.58983 1989.8773
70.650622 1962.3763
70.68224 1949.9828
70.621034 1985.4883
70.433383 2079.1409
70.559905 2022.0556
70.472799 2066.651
70.512923 2053.3022
70.466257 2083.4651
70.381589 2129.456
70.516487 2071.0621
70.465456 2100.7111
70.425315 2123.1393
70.50767 2090.0383
70.541967 2078.9572
70.585898 2065.4658
70.645482 2043.6856
70.758878 1992.6264
70.817144 1969.6519
70.688983 2035.4958
70.659931 2056.8731
70.575903 2102.6018
70.547382 2118.6273
70.542307 2127.2424
70.542216 2132.1087
70.604713 2110.1078
70.646494 2095.4046
70.696366 2078.9435
70.73447 2067.1968
70.731568 2070.4971
70.834869 2025.6722
70.840754 2027.6418
70.791176 2056.1157
70.880507 2019.0122
70.821163 2050.1158
70.827185 2050.8233
70.82584 2054.7934
70.852241 2046.8621
70.917685 2023.8132
70.722994 2121.5372
70.69009 2142.3954
70.779847 2104.7921
70.711413 2139.7693
70.760493 2124.7498
70.712764 2153.1003
70.738291 2146.9806
70.805633 2121.169
70.880418 2088.1194
71.018114 2028.936
70.942892 2069.1203
70.920571 2085.3965
71.031074 2037.8321
70.941272 2083.2356
70.987844 2068.0922
70.990909 2070.1808
71.100805 2021.4316
71.157504 1998.9938
71.018771 2068.436
70.995672 2086.7192
70.883443 2142.799
70.821768 2178.1952
70.77444 2204.9801
70.822841 2187.6426
70.940833 2139.1732
71.000832 2116.5841
70.990659 2128.0372
71.009057 2123.8461
71.037725 2113.5087
71.160427 2058.3643
71.034512 2122.8916
70.995878 2146.9444
70.860935 2213.853
70.939719 2178.4392
71.085722 2110.474
71.082299 2113.5041
71.126906 2095.3311
71.078948 2120.5957
71.058434 2134.023
71.139447 2096.4834
71.105004 2116.2075
71.206339 2070.6946
71.229134 2063.8001
71.161591 2099.2329
71.190132 2087.5598
71.349196 2014.7333
71.241514 2069.2807
71.116915 2133.1596
71.203245 2095.9821
71.259637 2072.0535
71.338906 2038.787
71.323883 2048.6837
71.373027 2030.6574
71.432435 2005.4331
71.378625 2036.1938
71.326204 2066.0902
71.377805 2044.1022
71.37135 2051.5804
71.34413 2068.1417
71.340548 2075.3489
71.386012 2057.4464
71.434686 2038.5163
71.480047 2020.7698
71.47997 2025.121
71.440276 2048.2298
71.489969 2028.9227
71.488914 2034.1643
71.493269 2036.1202
71.582362 1997.3044
71.666976 1961.4351
71.714749 1942.4311
71.607056 1998.4659
71.544209 2033.5541
71.406042 2102.9834
71.396312 2112.5675
71.501472 2065.1723
71.632905 2007.5362
71.462241 2093.6695
71.479747 2090.1252
71.56417 2054.7472
71.561196 2060.4669
71.379744 2152.0261
71.287627 2200.3532
71.38661 2158.0667
71.559838 2081.0091
71.502265 2113.4443
71.601697 2071.5393
71.67544 2040.9586
71.542794 2108.6432
71.49601 2135.8725
71.372589 2199.3115
71.453114 2166.4856
71.334521 2228.3636
71.513681 2149.3036
71.553253 2135.4455
71.623405 2106.7239
71.738226 2057.1171
71.71664 2072.8334
71.675585 2097.1439
71.837173 2025.0209
72.010643 1947.5268
72.121172 1899.4748
72.122195 1905.6073
72.130445 1908.2603
72.2369 1862.7387
72.21056 1880.5306
72.217562 1882.5002
72.206757 1893.6453
72.231064 1886.925
72.24783 1885.1628
72.250563 1890.3724
72.07969 1977.5433
72.139662 1952.9896
72.248278 1905.6672
72.210343 1928.8299
72.263087 1908.4815
72.241886 1925.8372
72.36774 1873.0669
72.39969 1865.9243
72.416995 1865.8648
72.369305 1897.5064
72.426518 1877.0469
72.411728 1890.542
72.3469 1930.161
72.27092 1974.9406
72.202795 2014.0137
72.304836 1971.6029
72.393333 1935.1004
72.447248 1913.3199
72.583802 1851.2124
72.647317 1824.8873
72.608621 1850.1474
72.716027 1802.8273
72.696732 1820.1689
72.794805 1779.3382
72.684244 1840.9352
72.673707 1853.1546
72.582308 1904.1157
72.431279 1982.459
72.330539 2037.4284
72.429795 1996.5744
72.541479 1950.5107
72.426222 2013.0078
72.394611 2034.422
72.562956 1958.1485
72.503648 1988.032
72.421407 2031.5021
72.379528 2057.2905
72.464721 2019.0625
72.536553 1991.3319
72.564462 1985.8658
72.481793 2034.3717
72.47872 2042.3446
72.478504 2048.9319
72.463552 2063.9373
72.446575 2076.7448
72.515471 2047.9537
72.635918 2000.0913
72.682992 1984.9512
72.693271 1985.0107
72.874885 1904.5979
72.961967 1866.9897
72.947556 1876.8403
72.963308 1871.4145
73.0068 1855.8667
72.989107 1870.6808
72.782784 1975.4407
72.677443 2032.0621
72.782857 1988.3488
72.827065 1970.1624
72.805637 1988.1148
72.83151 1982.028
72.78635 2013.4255
72.813038 2005.4202
72.744094 2046.0444
72.686914 2081.5832
72.761502 2049.368
72.708725 2075.0184
72.742448 2060.9035
72.77771 2047.4491
72.656035 2109.68
72.753111 2070.7087
72.858685 2026.1366
72.938028 1993.701
73.038255 1949.629
73.016031 1971.3464
73.054126 1959.9569
72.946336 2022.505
72.889281 2059.4896
73.003631 2011.8604
73.061694 1993.1041
73.077508 1989.1931
72.922997 2073.8618
72.928684 2076.9418
72.972703 2057.3363
72.971716 2063.7306
72.876299 2114.3122
72.796645 2158.4707
72.772457 2176.433
72.832423 2157.3096
72.637435 2256.9247
72.508491 2323.0301
72.494804 2333.9686
72.530329 2320.9777
72.569548 2305.8809
72.53452 2325.6183
72.510543 2343.2539
72.570527 2316.4058
72.473048 2365.8987
72.505452 2351.6865
72.471699 2373.5514
72.448937 2388.5248
72.531818 2354.3636
72.501071 2378.3059
72.52124 2374.969
72.6411 2324.7885
72.708349 2301.3497
72.714481 2304.9302
72.687028 2323.383
72.682383 2325.9725
72.866388 2244.2594
72.876122 2244.2274
72.931683 2220.4681
72.835347 2274.4867
72.889602 2252.389
72.882377 2257.8011
72.869356 2266.7708
72.812523 2294.8086
72.839026 2284.6541
72.904758 2255.9695
72.978755 2223.7547
72.914621 2257.7545
72.939137 2246.0864
72.984323 2229.4233
73.061837 2195.2808
72.940554 2253.294
72.823728 2310.6857
72.659699 2388.6715
72.544714 2444.6091
72.488918 2470.5264
72.534572 2447.8595
72.663522 2389.0344
72.510232 2462.0251
72.525084 2457.269
72.62015 2414.9093
72.653357 2398.9349
72.730863 2366.7575
72.742244 2361.7083
72.808843 2334.3452
72.677037 2397.9672
72.580682 2446.4727
72.532099 2474.7537
72.470713 2506.3262
72.582379 2456.7053
72.658673 2420.2989
72.741085 2385.0403
72.760542 2375.6304
72.746424 2385.2336
72.841605 2341.3084
72.697581 2410.5955
72.784008 2372.8439
72.940249 2300.9083
72.80106 2371.4858
72.789429 2379.9919
72.799314 2379.6977
72.925503 2322.4793
72.946444 2314.6066
72.911756 2335.2719
73.038936 2278.384
73.084112 2261.4231
73.124638 2245.0451
73.048508 2285.9989
72.918265 2352.2373
72.922407 2352.6422
72.889481 2371.6687
72.928433 2357.5903
72.7297 2456.485
72.632193 2507.1523
72.615217 2519.0186
72.684955 2489.1675
72.800007 2437.3101
72.864647 2410.2043
72.960787 2369.8512
72.988275 2361.7574
73.01353 2355.6855
72.965519 2384.1453
72.942858 2401.6616
72.972756 2392.9217
73.00831 2380.9186
73.059234 2363.0901
72.932813 2427.7538
73.011644 2395.2085
73.141824 2336.7181
73.081792 2369.31
73.12717 2353.1518
73.09104 2375.0293
73.12765 2363.039
73.090707 2387.2752
72.93117 2469.2909
72.95276 2464.3431
73.036476 2430.2231
72.999481 2454.9839
72.881998 2519.29
72.797384 2566.0738
72.950518 2496.9853
73.036855 2458.9032
73.050816 2455.4707
73.074963 2449.6999
72.998519 2491.0365
73.051541 2470.3571
73.124686 2440.1573
73.164526 2425.381
73.054311 2482.6405
73.065478 2483.5579
73.18676 2432.1146
73.269572 2396.6036
73.210887 2431.7612
73.178609 2453.2945
73.192262 2453.4179
73.306556 2402.1396
73.207325 2453.9462
73.121339 2501.117
73.057775 2533.3817
73.150275 2494.5152
73.173648 2487.9561
73.057211 2547.8416
73.091272 2537.1966
73.174549 2503.3427
73.095218 2547.2264
72.936796 2627.181
72.930823 2634.2958
73.083457 2567.6027
73.099936 2564.9722
73.066676 2587.6947
73.249996 2507.2628
73.329272 2475.9659
73.383051 2454.4925
73.265496 2517.2281
73.129597 2586.1661
73.158859 2578.0736
73.16109 2583.2828
73.142524 2596.7733
73.062232 2640.7581
72.997004 2674.9654
73.097597 2628.535
73.171947 2596.5168
73.161491 2602.8102
73.18178 2595.6729
73.08338 2646.6715
73.080877 2651.4127
72.962395 2715.0029
73.05175 2676.2603
73.027242 2693.0515
72.990121 2713.5472
72.987193 2719.4643
73.041282 2697.7943
73.186299 2632.4734
73.239451 2610.9855
73.385083 2545.3711
73.489195 2502.7915
73.566164 2470.5401
73.532676 2490.2417
73.342462 2583.9034
73.283187 2618.0501
73.445767 2546.6295
73.48377 2534.8504
73.394861 2581.6674
73.245962 2657.2791
73.338041 2617.6605
73.440725 2572.4407
73.431094 2582.9386
73.507517 2550.6365
73.542736 2539.1609
73.537538 2545.9681
73.526517 2553.7302
73.440606 2599.8911
73.520807 2566.3543
73.473996 2595.0527
73.534953 2569.9348
73.414786 2630.4668
73.257764 2711.3215
73.333129 2679.9654
73.340087 2683.7883
73.310101 2703.2105
73.254156 2735.4113
73.319679 2710.2477
73.443882 2658.1013
73.56648 2605.6108
73.579051 2607.1622
73.690365 2559.193
73.729612 2547.5111
73.776752 2529.484
73.702565 2570.5451
73.715426 2569.5349
73.699368 2584.981
73.708225 2585.9828
73.662451 2613.735
73.707602 2598.913
73.681446 2616.9164
73.621615 2656.9025
73.737379 2607.8831
73.785189 2596.8469
73.804415 2592.9006
73.718597 2644.0363
73.811482 2607.3094
73.867363 2593.5977
73.840648 2614.566
73.872888 2604.7428
73.78865 2649.4621
73.767391 2668.0991
73.775485 2673.1811
73.688736 2718.891
73.679643 2728.5579
73.740713 2699.4093
73.647022 2747.8189
73.698619 2728.5808
73.675234 2746.1303
73.879286 2656.0128
73.837828 2687.6627
73.800766 2709.4075
73.855064 2691.8077
74.049951 2605.9642
74.160087 2563.3978
74.177186 2565.2939
74.169986 2573.3827
74.184196 2579.1756
74.177563 2587.2037
74.131781 2612.7855
74.134154 2618.5776
74.308763 2540.4096
74.261204 2571.6234
74.186484 2612.8816
74.174055 2625.1375
74.172463 2636.1728
74.233939 2612.7988
74.16587 2653.603
74.309213 2592.9966
74.503357 2510.1362
74.360999 2584.5178
74.30671 2617.0635
74.169377 2689.7288
74.366497 2606.9278
74.441172 2583.0488
74.411696 2601.9061
74.409903 2607.2362
74.314297 2660.9465
74.36069 2647.0519
74.487243 2595.2182
74.595531 2554.0237
74.58809 2564.5223
74.50571 2603.0313
74.49619 2608.493
74.561074 2588.4982
74.611142 2573.0193
74.652555 2555.7093
74.582687 2595.8704
74.703215 2537.7325
74.620863 2571.6459
74.659384 2549.8333
74.716498 2527.0605
74.778694 2502.7786
74.792045 2496.6589
74.693762 2546.0417
74.695355 2545.1146
74.821834 2489.1542
74.724216 2542.2409
74.833656 2496.5343
74.905564 2468.9882
74.807207 2520.1568
74.554395 2643.2153
74.413446 2712.6068
74.449367 2696.9492
74.438002 2710.9593
74.316768 2768.0309
74.310138 2776.8207
74.377885 2747.0248
74.353408 2764.9864
74.332283 2778.0649
74.310085 2795.3567
74.365296 2778.3443
74.402415 2767.6032
74.381594 2780.9112
74.308213 2819.5566
74.254239 2855.5727
74.3834 2799.0007
74.35797 2823.1878
74.19653 2904.5056
74.220252 2899.2265
74.324098 2855.2555
74.348156 2845.9516
74.299367 2878.4149
74.25608 2897.4681
74.338148 2864.1158
74.295972 2883.023
74.200108 2929.0368
74.135045 2963.2658
74.128498 2969.9637
74.047479 3017.235
74.04989 3020.9759
74.063393 3024.9472
73.980204 3070.7901
73.895541 3122.596
73.951651 3100.5356
74.03332 3072.3058
74.059637 3064.6443
74.091157 3059.1167
74.161534 3030.3722
74.212278 3012.3326
74.202813 3023.8726
74.271357 2994.65
74.300166 2990.5187
74.384535 2952.8049
74.349338 2975.133
74.395243 2954.0857
74.381174 2969.2154
74.339211 2993.0487
74.171944 3085.9198
74.255353 3050.9277
74.410112 2983.6658
74.401046 2990.7029
74.25158 3062.1368
74.329498 3035.628
74.588661 2914.7598
74.676907 2881.6545
74.62844 2906.3513
74.590778 2925.0286
74.63087 2911.8732
74.765299 2850.9134
74.814648 2832.6668
74.742995 2872.901
74.78934 2851.2348
74.693037 2902.2337
74.7282 2883.6928
74.749567 2880.4569
74.654031 2930.3667
74.739969 2895.4535
74.769721 2883.9364
74.813527 2863.7617
74.907664 2821.9532
75.05503 2755.6961
75.001034 2785.6154
74.911093 2829.2975
74.918994 2827.695
75.017148 2784.1147
75.058363 2770.2068
75.037179 2784.101
75.116652 2753.0609
75.148423 2739.3733
75.06223 2780.5479
75.097352 2769.2793
74.918348 2859.8873
75.044181 2801.4575
75.204509 2733.7135
75.270371 2703.9901
75.165594 2762.3566
75.159915 2766.892
75.252685 2727.8828
75.242214 2740.0202
75.102565 2807.2492
75.111644 2811.6703
75.136684 2803.4584
75.167485 2793.291
75.127494 2817.3904
75.062588 2851.3316
75.001357 2887.5173
74.933738 2922.7019
74.882358 2953.1221
74.894875 2946.9156
74.901468 2948.1003
74.832075 2986.6958
74.871645 2974.0306
74.841487 2998.0106
74.848776 2997.2299
74.814636 3019.755
74.798169 3031.855
74.715807 3075.7616
74.767863 3058.8872
74.840629 3028.5044
74.834513 3036.8401
74.886754 3016.0868
75.020829 2952.6357
74.994757 2973.5217
75.022843 2962.8987
75.003855 2975.9677
74.932137 3012.2365
74.791968 3075.064
74.814396 3069.1743
74.951064 3002.8756
74.959202 3008.9769
74.787418 3090.5287
74.727041 3126.5215
74.737294 3124.6125
74.868274 3066.7099
74.854241 3078.4649
74.907795 3051.456
74.855916 3084.084
74.83096 3097.0657
74.938886 3048.8395
74.843919 3096.5519
74.812317 3112.6215
74.90091 3073.2236
74.857266 3094.4767
74.931592 3063.8727
74.854826 3103.786
74.952984 3060.1958
75.019354 3031.8915
75.041341 3027.7557
75.209401 2950.3489
75.16819 2974.9762
75.150774 2987.6458
75.068266 3029.3944
75.092836 3022.4313
75.093351 3025.7911
75.191528 2984.4964
75.274134 2949.858
75.181716 2999.3462
75.128695 3029.9589
75.187799 3006.553
75.230028 2991.5247
75.338443 2942.798
75.253706 2987.2097
75.375527 2931.8691
75.282694 2980.4981
75.244916 3000.8112
75.281585 2989.9683
75.316377 2977.3823
75.365324 2957.487
75.320028 2981.9772
75.263255 3011.5065
75.242452 3025.6805
75.226061 3037.0563
75.386479 2964.9511
75.25428 3028.4907
75.239538 3039.9434
75.295737 3013.778
75.33036 3003.9274
75.345382 2998.9879
75.285106 3034.003
75.435496 2966.9938
75.590353 2898.5564
75.558476 2917.156
75.614588 2892.9697
75.558298 2925.7582
75.703898 2861.2321
75.793926 2826.121
75.682408 2882.7882
75.747212 2856.417
76.026335 2728.7882
76.065808 2715.2735
76.040572 2729.7057
75.990123 2759.3173
76.168738 2677.5041
76.158834 2684.9261
76.0991 2715.1589
76.005988 2762.1782
76.141814 2703.5776
76.212407 2675.8977
76.093658 2736.1088
76.07865 2746.6075
75.955413 2810.2339
76.091696 2751.4966
76.147407 2729.9863
76.10083 2758.2527
76.042295 2791.2258
76.002346 2813.5438
76.049398 2795.1272
75.925703 2859.5572
75.823544 2913.1444
75.763688 2942.9913
75.675838 2994.2094
75.719324 2979.3873
75.663716 3006.4935
75.699314 2994.7743
75.719067 2993.5995
75.638523 3039.6587
75.635231 3048.0958
75.509077 3121.385
75.48146 3143.5925
75.410175 3180.4757
75.271667 3252.1681
75.355083 3220.8297
75.387572 3210.4062
75.367233 3224.47
75.170905 3326.5594
75.245255 3296.4925
75.254333 3297.8743
75.29315 3285.0668
75.329225 3271.4749
75.383662 3248.2938
75.404536 3243.2221
75.373448 3266.1093
75.481274 3221.1244
75.536226 3199.577
75.466056 3236.5243
75.483328 3228.0688
75.577297 3188.3709
75.684533 3142.9312
75.589913 3190.7674
75.545848 3209.5515
75.574945 3197.4519
75.572084 3204.0159
75.638677 3172.7282
75.575701 3208.1423
75.688668 3157.1944
75.659673 3171.3959
75.546456 3228.1519
75.700422 3158.2316
75.688995 3172.0439
75.768964 3138.6913
75.667207 3188.4315
75.569336 3240.0308
75.634053 3211.1998
75.637933 3212.8751
75.659344 3206.9724
75.673463 3202.2072
75.80431 3143.7256
75.865083 3118.1209
75.869243 3117.6353
75.904912 3103.9469
75.837569 3139.8794
76.035875 3048.9493
75.997606 3075.0087
76.008578 3073.8705
75.975604 3097.5791
76.008871 3086.0943
76.063951 3062.6289
76.127726 3039.6998
76.230414 2994.0398
76.325736 2954.7367
76.33942 2951.6301
76.216986 3012.1903
76.105715 3070.2855
76.130375 3063.4084
76.205789 3034.8111
76.247604 3024.3453
76.261752 3021.0266
76.294581 3014.8156
76.405363 2968.6318
76.416559 2969.082
76.387366 2992.502
76.345689 3020.0809
76.347414 3023.4914
76.29197 3052.7409
76.258703 3070.0693
76.296337 3058.0795
76.229832 3098.571
76.238011 3097.3954
76.187834 3130.9196
76.173385 3142.3084
76.286299 3092.8883
76.236304 3128.7068
76.366573 3071.0707
76.462042 3031.0701
76.521945 3005.0153
76.472475 3030.997
76.40974 3066.0855
76.378617 3081.8114
76.367205 3093.3743
76.411657 3080.834
76.400459 3086.5305
76.43299 3075.5184
76.391195 3102.4172
76.352179 3130.5011
76.402574 3117.0696
76.336904 3154.711
76.372481 3146.3886
76.373191 3148.6608
76.34625 3166.0947
76.409948 3139.6313
76.352584 3173.2881
76.416062 3146.3653
76.398875 3159.2963
76.420555 3154.2745
76.446427 3145.0346
76.441149 3152.6865
76.444831 3156.2396
76.367473 3199.7874
76.404296 3188.2108
76.311842 3239.4667
76.356217 3222.7253
76.404871 3203.6344
76.298847 3252.778
76.367402 3224.1811
76.46504 3180.4894
76.475938 3175.4041
76.510671 3159.618
76.516749 3151.8651
76.590291 3122.3761
76.661656 3087.7647
76.603512 3119.6636
76.629645 3111.4875
76.641722 3109.5324
76.639642 3117.1943
76.661361 3111.9019
76.637866 3129.1563
76.67064 3119.9936
76.690284 3112.5853
76.730653 3096.0418
76.788381 3071.851
76.845662 3045.7588
76.803488 3070.4729
76.765929 3088.2423
76.711974 3118.039
76.826122 3066.8193
76.920186 3026.3647
76.826319 3076.5834
76.66988 3152.8336
76.738435 3125.0162
76.754138 3122.0456
76.771744 3118.8334
76.665855 3174.0501
76.631295 3195.7758
76.732242 3152.8931
76.762449 3144.6434
76.695323 3181.234
76.590055 3238.7096
76.689517 3197.9383
76.808364 3147.9449
76.859456 3128.8769
76.826015 3150.7406
76.968804 3088.2427
77.113747 3028.0641
77.104815 3037.4134
77.252057 2978.1889
77.329762 2949.5774
77.4827 2885.1253
77.419316 2924.1203
77.447627 2916.1424
77.413548 2941.9034
77.402681 2949.9823
77.427493 2946.6309
77.416094 2954.967
77.339709 2996.4588
77.358565 2990.7669
77.189296 3075.9083
77.292817 3029.1508
77.270396 3041.8993
77.232476 3061.7202
77.026909 3160.8119
76.886203 3233.9951
76.969787 3195.0192
77.029799 3174.9131
77.030993 3173.9994
76.975731 3206.8752
76.999191 3200.0402
76.941226 3232.1635
76.931982 3242.7666
77.024051 3202.5606
77.063461 3189.0281
77.148041 3153.0627
77.222923 3123.4739
77.310433 3087.9031
77.468239 3019.0566
77.50863 3003.1101
77.406556 3057.1154
77.518647 3007.3748
77.503954 3016.8309
77.647131 2955.7149
77.610032 2977.2718
77.678801 2947.0353
77.754429 2910.5096
77.782433 2896.1968
77.789205 2897.7944
77.635735 2971.0146
77.562781 3011.0521
77.644102 2976.8075
77.549788 3020.4991
77.553953 3022.307
77.454377 3071.4008
77.502891 3049.4639
77.581317 3012.1305
77.558905 3023.4777
77.696255 2961.6915
77.625233 2996.5963
77.539227 3040.0993
77.609008 3011.4055
77.579751 3024.5938
77.631098 3003.4264
77.687643 2981.0722
77.665587 2996.0684
77.710008 2981.1321
77.875156 2906.5708
78.028099 2840.2364
78.011365 2853.6035
78.0554 2837.1053
78.143203 2801.87
78.144515 2805.2301
78.199465 2781.7094
78.328536 2726.3821
78.442226 2675.7606
78.395281 2702.6228
78.352919 2727.2501
78.298789 2756.2012
78.234393 2791.8996
78.191258 2814.7785
78.226674 2804.0233
78.302343 2773.066
78.289281 2783.5639
78.309609 2781.0717
78.247527 2814.8238
78.204725 2842.1553
78.207268 2844.3677
78.225581 2840.4293
78.131538 2890.8671
78.256027 2834.7599
78.378638 2782.256
78.604637 2680.7084
78.609865 2682.2373
78.544143 2720.2317
78.603498 2694.81
78.629971 2688.2734
78.536702 2738.7623
78.467806 2775.1682
78.611166 2716.761
78.667627 2692.2484
78.547035 2756.5549
78.494707 2787.4748
78.487016 2792.7535
78.563603 2761.0891
78.458931 2812.2489
78.510194 2794.7223
78.623763 2745.3126
78.754725 2688.3599
78.799162 2676.1139
78.797086 2684.229
78.75361 2709.9679
78.695711 2743.821
78.643472 2776.743
78.549909 2826.585
78.676209 2774.3098
78.778755 2732.8218
78.6418 2806.7499
78.688411 2788.5864
78.691394 2789.9948
78.796689 2744.4176
78.737883 2773.4697
78.670182 2813.4466
78.777037 2766.8961
78.774995 2774.9483
78.84643 2745.2852
78.870405 2738.3212
78.779614 2790.0913
78.794267 2789.21
78.619604 2879.6579
78.560159 2912.6355
78.562151 2919.7961
78.535595 2938.6156
78.53335 2945.3505
78.453867 2990.0182
78.568773 2936.6376
78.609438 2919.745
78.60701 2924.9787
78.531251 2963.7434
78.534332 2967.7604
78.691548 2898.3593
78.845715 2831.6525
78.757875 2878.1568
78.665217 2926.8107
78.641077 2944.7028
78.782767 2879.6991
78.727823 2911.1664
78.70887 2923.9129
78.811012 2882.3388
78.972545 2810.7806
79.093769 2757.4591
79.163155 2728.2965
79.287381 2669.3558
79.407595 2614.7406
79.388539 2627.0343
79.350614 2651.9639
79.444578 2612.6849
79.514271 2587.7549
79.554155 2573.7726
79.596436 2559.8905
79.762216 2484.5083
79.778944 2479.1194
79.727024 2510.8799
79.655561 2546.1061
79.735071 2513.1197
79.802646 2483.0296
79.869328 2455.2869
79.916153 2439.2386
79.885631 2456.4018
79.877596 2468.1946
79.868374 2473.6566
79.880476 2473.1432
79.991331 2425.4583
80.062426 2399.275
80.124574 2376.081
80.172729 2360.4367
80.219412 2345.2971
80.203191 2356.7228
80.151029 2387.5924
80.221454 2357.9304
80.249123 2351.871
80.348595 2307.9595
80.365757 2305.2699
80.390215 2298.2419
80.437716 2279.2653
80.511188 2248.7578
80.552349 2235.3404
80.46761 2283.37
80.366134 2338.0363
80.406906 2327.5143
80.362383 2352.9585
80.364918 2357.994
80.434579 2325.8897
80.425609 2335.5067
80.37648 2362.3918
80.350885 2378.7931
80.486017 2318.5172
80.559358 2286.3302
80.597402 2273.1286
80.796944 2182.8407
80.801705 2185.8567
80.72146 2227.9229
80.782787 2205.1642
80.845727 2179.7097
80.945323 2137.8371
80.952227 2139.5997
80.85728 2189.5474
80.910508 2168.1102
80.98548 2136.0562
81.06511 2100.0132
81.022272 2123.9932
81.058211 2109.4098
81.146657 2073.2744
81.149116 2076.1337
81.24329 2036.3036
81.286541 2019.6586
81.37066 1980.4899
81.389158 1974.7332
81.449935 1947.7097
81.428239 1962.4274
81.372764 1992.1588
81.412121 1977.8368
81.550538 1915.3851
81.573729 1904.8045
81.676957 1857.423
81.705419 1846.337
81.661062 1869.5189
81.741385 1833.9549
81.785021 1816.8218
81.7552 1833.6515
81.830927 1801.1645
81.851192 1794.7122
81.983499 1734.179
82.023507 1718.7326
81.977194 1743.9564
82.060449 1709.6146
81.99806 1745.1069
82.147756 1676.4948
82.271683 1623.481
82.370318 1577.5049
82.361989 1587.5869
82.41022 1569.351
82.355136 1598.6108
82.513984 1527.5535
82.754331 1414.948
82.754514 1419.3118
82.725768 1439.9176
82.737685 1438.8144
82.8131 1406.5272
82.915513 1361.4309
82.966769 1342.3423
82.956833 1354.5497
82.968435 1354.8063
82.858715 1413.2254
82.980472 1361.3581
83.027499 1342.9632
82.939839 1390.432
82.934673 1401.2828
82.846378 1449.3992
82.832231 1459.4339
82.872453 1445.1334
82.835342 1468.1605
82.854796 1464.3471
82.935248 1429.2577
83.020693 1393.3755
82.948091 1434.6111
82.910983 1455.523
83.111464 1363.3376
83.284898 1285.1932
83.32451 1272.2375
83.341069 1272.3492
83.253624 1320.8056
83.302861 1302.7297
83.306383 1304.7706
83.424311 1252.9296
83.513366 1217.4234
83.420799 1269.7342
83.442714 1268.7931
83.575957 1213.2214
83.722341 1146.8436
83.76246 1132.5425
83.82606 1109.5832
83.945087 1057.4248
84.055612 1013.0409
84.073041 1013.0128
84.005356 1051.423
84.176621 973.98268
84.421547 858.82291
84.547077 803.89029
84.487574 839.52778
84.460065 858.2692
84.588716 799.69593
84.7788 712.218
84.689514 759.34248
84.886089 670.94695
84.827523 703.27925
84.783951 730.19957
84.822732 717.99665
84.835607 713.57586
84.994247 643.58227
84.959602 670.04483
85.037165 640.48115
85.106581 613.32461
85.236534 557.47073
85.088449 636.20181
85.032757 668.36213
85.068905 651.50873
85.214622 585.54077
85.214463 591.54018
85.098001 651.73355
85.127448 643.75304
85.287547 571.24619
85.184126 623.21669
85.146636 643.21152
85.093874 672.20197
84.975195 730.90087
85.132577 661.61466
85.24274 617.94138
85.337405 576.91955
85.467187 525.25879
85.57136 481.34643
85.540736 502.71291
85.567484 496.71105
85.571207 499.64918
85.614409 489.15984
85.747535 434.07313
85.730779 447.6766
85.733865 453.33861
85.756068 449.04668
85.751089 453.67238
85.764231 451.71323
85.680476 494.41327
85.642888 516.14074
85.791991 455.05424
85.73737 486.77627
85.626047 547.27818
85.523491 600.46268
85.562712 584.42847
85.795097 480.84762
85.901401 434.26098
85.965962 408.74079
86.114589 345.36976
86.072682 367.1384
86.149808 335.87239
86.131061 351.35549
86.22299 309.11897
86.417242 223.00256
86.483764 194.56956
86.402766 235.03791
86.394223 243.7471
86.535834 177.94975
86.504444 197.94618
86.494366 205.14473
86.495392 206.82756
86.556061 182.80759
86.556254 181.41683
86.500256 210.49152
86.58472 175.07663
86.610926 162.6965
86.474721 230.45257
86.55803 195.09506
86.330997 306.39002
86.291817 325.62358
86.305267 321.37793
86.415886 271.99374
86.50799 231.17237
86.551595 212.36253
86.642197 172.17276
86.604933 192.52868
86.553977 216.86248
86.620783 188.80224
86.626298 187.76252
86.616803 192.20967
86.551078 227.53913
86.560192 224.57377
86.533797 241.56031
86.556547 234.8424
86.655159 192.00531
86.682102 184.43449
86.700034 179.78539
86.770854 153.37379
86.865783 113.55904
86.866492 118.01382
86.930552 94.817423
86.844606 140.18714
86.817651 157.40075
86.85469 142.84168
86.876736 135.23011
86.94741 104.27253
86.998737 83.164767
86.940402 115.43534
86.962637 108.58693
86.989352 98.548795
87.035106 79.376201
87.155731 24.650548
87.082301 65.256942
&
